"Time (s)","Acceleration x (m/s^2)","Acceleration y (m/s^2)","Acceleration z (m/s^2)","Absolute acceleration (m/s^2)"
-7.400000468E-4,-2.708467712E0,4.526287537E0,7.961044922E0,9.549937825E0
9.325999999E-3,-2.753524017E0,4.723128204E0,7.725434875E0,9.464257951E0
1.939199999E-2,-2.947819977E0,4.857848053E0,7.674690399E0,9.549303799E0
2.945799998E-2,-3.118465118E0,5.035977631E0,7.649991760E0,9.675136657E0
3.952299996E-2,-3.258573761E0,5.077441406E0,7.440427551E0,9.579074921E0
4.958900000E-2,-3.311862946E0,5.107079773E0,7.248676300E0,9.465411142E0
5.965499999E-2,-3.315455475E0,5.152884521E0,7.078330536E0,9.362009777E0
6.972099998E-2,-3.214116211E0,5.181475067E0,6.805148621E0,9.137191835E0
7.978699997E-2,-3.194357300E0,5.223687286E0,6.669380951E0,9.053809678E0
8.985299995E-2,-3.137625275E0,5.444777527E0,6.479126587E0,9.026038777E0
9.991900000E-2,-3.149450684E0,5.592220917E0,6.592890015E0,9.200987617E0
1.099850000E-1,-3.392844543E0,5.613626404E0,6.939419403E0,9.548808153E0
1.200510000E-1,-3.472778320E0,5.443729706E0,7.426207123E0,9.840880784E0
1.301170000E-1,-2.898422699E0,4.689448242E0,7.793543243E0,9.546260799E0
1.401820000E-1,-4.064348145E0,4.946014709E0,8.088879089E0,1.031561691E1
1.502480000E-1,-4.513713684E0,6.076912994E0,8.328830109E0,1.125486089E1
1.603140000E-1,-4.135749664E0,5.895639954E0,7.984695740E0,1.075259791E1
1.703800000E-1,-3.812422028E0,5.006788330E0,7.425159302E0,9.733215386E0
1.804460000E-1,-3.815415802E0,4.939428406E0,6.666686554E0,9.132363348E0
1.905120000E-1,-4.134252777E0,5.179978180E0,5.916746063E0,8.884374145E0
2.005780000E-1,-4.261188812E0,5.167104950E0,5.511987762E0,8.674025176E0
2.106440000E-1,-4.357887726E0,5.038372650E0,4.762346649E0,8.188792951E0
2.207100000E-1,-4.255500641E0,4.887935486E0,3.758534088E0,7.491847403E0
2.307760000E-1,-3.555256805E0,4.650379486E0,4.133504333E0,7.166012726E0
2.408410000E-1,-4.114044800E0,4.220623169E0,4.149221649E0,7.207986185E0
2.509070000E-1,-5.113965454E0,4.505331116E0,4.755460968E0,8.310539101E0
2.609730000E-1,-4.547243958E0,4.179009705E0,3.783232727E0,7.242540962E0
2.710390000E-1,-4.140988770E0,3.390299835E0,2.807711334E0,6.043605207E0
2.811050000E-1,-4.567302246E0,3.242557068E0,2.901715851E0,6.308278769E0
2.911710000E-1,-4.961432648E0,3.335364075E0,3.822750549E0,7.096047434E0
3.012370000E-1,-5.266647949E0,3.020718384E0,4.756658478E0,7.712854209E0
3.113030000E-1,-5.545817413E0,2.276166687E0,5.073549500E0,7.853529786E0
3.213690000E-1,-5.919889526E0,1.999392242E0,6.723867645E0,9.178946424E0
3.314340000E-1,-5.952671356E0,2.087259521E0,8.210126953E0,1.035360484E1
3.415000000E-1,-5.478008423E0,1.971699829E0,5.644611969E0,8.109119606E0
3.515660000E-1,-5.024301910E0,2.151775360E0,4.788542175E0,7.266628039E0
3.616320000E-1,-4.485721893E0,1.804946594E0,4.913232880E0,6.893430963E0
3.716980000E-1,-4.230951691E0,1.294058990E0,4.277504883E0,6.154070921E0
3.817640000E-1,-4.483775940E0,1.097368011E0,3.824995880E0,5.994919242E0
3.918300000E-1,-4.718637543E0,7.661068726E-1,4.114942932E0,6.307552246E0
4.018960000E-1,-4.974605255E0,1.540296936E-1,4.255350952E0,6.548162667E0
4.119620000E-1,-5.155728607E0,-4.017645264E-1,4.345613251E0,6.754798793E0
4.220280000E-1,-5.006938019E0,-5.105882263E-1,3.959865417E0,6.403956807E0
4.320940000E-1,-3.854484558E0,-2.483335876E-1,3.344345398E0,5.109145420E0
4.421590000E-1,-3.247796173E0,1.302291870E-1,2.807262268E0,4.294864499E0
4.522250000E-1,-3.028053131E0,1.919009399E-1,2.261646881E0,3.784306852E0
4.622910000E-1,-3.500770111E0,2.302212524E-1,1.516646118E0,3.822120961E0
4.723570000E-1,-4.110152893E0,-6.960525513E-2,1.455573120E0,4.360836480E0
4.824230000E-1,-4.645439758E0,-9.301657104E-1,2.072290649E0,5.171045091E0
4.924890000E-1,-4.625381470E0,-2.303110657E0,2.340233459E0,5.672315672E0
5.025550000E-1,-4.806205444E0,-4.058210907E0,2.290836182E0,6.694521413E0
5.126210000E-1,-5.235063629E0,-5.571114807E0,2.388882294E0,8.009367641E0
5.226870000E-1,-6.850653992E0,-5.565576324E0,1.823957062E0,9.012986148E0
5.327530000E-1,-9.144334259E0,-3.786675568E0,1.603465576E0,1.002640827E1
5.428180000E-1,-7.745642853E0,-4.164040833E0,6.177653503E-1,8.815659549E0
5.528840000E-1,-6.879693604E0,-5.655389557E0,-3.174897766E-1,8.911476582E0
5.629500000E-1,-7.896678772E0,-5.858966217E0,6.146218872E-1,9.852044500E0
5.730160000E-1,-8.455466766E0,-6.273154907E0,1.816023560E0,1.068388189E1
5.830820000E-1,-9.530381470E0,-7.514373779E0,2.890788574E0,1.247600268E1
5.931480000E-1,-1.102532272E1,-8.769364014E0,3.680695953E0,1.456046047E1
6.032140000E-1,-1.215277817E1,-1.027149033E1,5.025200043E0,1.668670627E1
6.132800000E-1,-1.317560120E1,-1.097787140E1,5.351072388E0,1.796508010E1
6.233460000E-1,-1.371013962E1,-1.068478088E1,5.888155518E0,1.835218914E1
6.334110000E-1,-1.364906662E1,-1.024275009E1,6.254443817E0,1.817495575E1
6.434770000E-1,-1.400652328E1,-1.015338593E1,5.515879669E0,1.815761187E1
6.535430000E-1,-1.514176254E1,-9.657317505E0,4.935536499E0,1.862515167E1
6.636090000E-1,-1.434317322E1,-8.650361481E0,4.752167816E0,1.741087220E1
6.736750000E-1,-1.337154373E1,-8.286767578E0,4.630021820E0,1.639834750E1
6.837410000E-1,-1.330418381E1,-8.550519104E0,4.681215363E0,1.649322470E1
6.938070000E-1,-1.424842026E1,-8.668324127E0,5.360652466E0,1.751838799E1
7.038730000E-1,-1.544054123E1,-8.943152618E0,6.135740662E0,1.886895879E1
7.139390000E-1,-1.632984192E1,-9.755213928E0,6.321803741E0,2.004477833E1
7.240050000E-1,-1.643986313E1,-1.026550278E1,6.391708374E0,2.040841941E1
7.340700000E-1,-1.567585190E1,-9.782307587E0,6.321354675E0,1.952909110E1
7.441360000E-1,-1.519460266E1,-8.929830322E0,5.097799072E0,1.834680831E1
7.542020000E-1,-1.541135193E1,-8.065527649E0,3.591481476E0,1.776122867E1
7.642680000E-1,-1.634690643E1,-7.150181122E0,2.462678833E0,1.801141935E1
7.743340000E-1,-1.670705750E1,-6.492448883E0,1.488055573E0,1.798588258E1
7.844000000E-1,-1.663700317E1,-6.159092102E0,6.448590088E-1,1.775218672E1
7.944660000E-1,-1.671753571E1,-5.998625793E0,-6.017486572E-2,1.776128184E1
8.045320000E-1,-1.686108719E1,-5.828130341E0,-1.086889801E0,1.787301580E1
8.145980000E-1,-1.708921280E1,-5.451064453E0,-2.224673767E0,1.807496808E1
8.246640000E-1,-1.656081161E1,-4.986280975E0,-2.353705444E0,1.745460995E1
8.347290000E-1,-1.537497757E1,-4.368365936E0,-3.612288208E0,1.638661595E1
8.447950000E-1,-1.357901230E1,-3.357518005E0,-7.093598785E0,1.568380202E1
8.548610000E-1,-1.221923996E1,-2.562521210E0,-6.950646057E0,1.428943039E1
8.649270000E-1,-1.130583939E1,-3.642675018E0,-6.465953979E0,1.352403957E1
8.749930000E-1,-9.154662781E0,-4.673281860E0,-7.632178802E0,1.280224852E1
8.850590000E-1,-7.431446228E0,-4.501439209E0,-7.924371185E0,1.175946456E1
8.951250000E-1,-8.138126678E0,-4.832251282E0,-4.785099335E0,1.060551432E1
9.051910000E-1,-8.394393768E0,-5.990692291E0,-2.767894135E0,1.067780309E1
9.152570000E-1,-7.528594208E0,-6.591093750E0,-1.509461060E0,1.011932410E1
9.253220000E-1,-6.709647217E0,-6.759194183E0,-5.228627014E-1,9.538315217E0
9.353880000E-1,-6.361620941E0,-6.868167572E0,-4.602928162E-1,9.373036662E0
9.454540000E-1,-6.918163605E0,-6.702911224E0,-4.468208313E-1,9.643114403E0
9.555200000E-1,-8.047714691E0,-6.516848145E0,1.037342834E-1,1.035595395E1
9.655860000E-1,-9.546697540E0,-6.669380951E0,6.783892822E-1,1.166534561E1
9.756520000E-1,-1.056038956E1,-6.865772552E0,1.283431091E0,1.266127386E1
9.857180000E-1,-1.110031677E1,-6.620732117E0,1.810036011E0,1.305095232E1
9.957840000E-1,-1.258792328E1,-6.198310547E0,2.502945099E0,1.425270502E1
1.005850000E0,-1.249796036E1,-5.201383667E0,2.540067902E0,1.377335653E1
1.015916000E0,-1.110869934E1,-3.868704987E0,1.447489929E0,1.185180604E1
1.025982000E0,-1.017089951E1,-3.808380432E0,3.879931641E-1,1.086745126E1
1.036047000E0,-9.510472870E0,-4.087998962E0,3.035687256E-1,1.035630164E1
1.046113000E0,-9.284293213E0,-4.352648621E0,1.462608490E0,1.035774464E1
1.056179000E0,-8.589288483E0,-5.904920654E0,1.930236053E0,1.060046111E1
1.066245000E0,-7.011868744E0,-7.328460388E0,2.100432129E0,1.035782072E1
1.076311000E0,-5.300178223E0,-7.832312622E0,1.466350708E0,9.570119884E0
1.086377000E0,-5.153782654E0,-7.509284363E0,2.005828857E-1,9.109942962E0
1.096443000E0,-7.337890778E0,-7.326364746E0,1.035845947E-1,1.036971510E1
1.106509000E0,-8.997040558E0,-7.667954407E0,8.114625549E-1,1.184916601E1
1.116575000E0,-8.064180450E0,-7.886949005E0,1.574575653E0,1.138921681E1
1.126640000E0,-6.331533508E0,-8.980425110E0,2.276166687E0,1.122128720E1
1.136706000E0,-5.413791962E0,-1.090706863E1,3.753893738E0,1.274225285E1
1.146772000E0,-6.292015686E0,-1.242371475E1,5.279670868E0,1.489339028E1
1.156838000E0,-7.393425293E0,-1.137140305E1,5.235961761E0,1.453914854E1
1.166904000E0,-7.123087463E0,-9.003177795E0,3.236569519E0,1.192773942E1
1.176970000E0,-8.799451447E0,-7.737559662E0,2.791994019E0,1.204555544E1
1.187036000E0,-1.016985168E1,-7.882158966E0,3.091371460E0,1.323294717E1
1.197102000E0,-4.243375854E0,-6.897356873E0,-1.292262726E0,8.200592260E0
1.207168000E0,-1.816023560E0,-6.010750580E0,-1.761836243E0,6.521589611E0
1.217234000E0,-1.305585022E0,-7.109465790E0,-3.353027344E-2,7.228428622E0
1.227299000E0,-1.680106201E0,-8.797355804E0,-2.811154175E-1,8.960761791E0
1.237365000E0,-2.169588318E0,-9.311835938E0,-3.149450684E-1,9.566430494E0
1.247431000E0,-2.060614929E0,-9.062753906E0,-1.113684082E-1,9.294732120E0
1.257497000E0,-2.752027130E0,-8.739575958E0,-8.033793640E-1,9.197785584E0
1.267563000E0,-3.467090149E0,-8.331225128E0,-1.762584686E0,9.194385842E0
1.277629000E0,-4.633015594E0,-7.307354279E0,-1.775158539E0,8.832522170E0
1.287695000E0,-4.685107269E0,-6.211034088E0,-2.520758057E0,8.178104655E0
1.297761000E0,-5.089715881E0,-5.474266205E0,-3.150049438E0,8.111449297E0
1.307827000E0,-5.207071838E0,-5.173092499E0,-2.958896942E0,7.913883639E0
1.317893000E0,-3.681294708E0,-5.237758026E0,-2.476450195E0,6.864316822E0
1.327958000E0,-2.714904327E0,-5.833369446E0,-1.079704742E0,6.524160247E0
1.338024000E0,-2.431992645E0,-6.575975189E0,7.447013855E-1,7.050717557E0
1.348090000E0,-2.190095673E0,-6.778653717E0,2.425556030E0,7.525289850E0
1.358156000E0,-3.409310303E0,-6.920858002E0,2.675685883E0,8.165841485E0
1.368222000E0,-3.553909607E0,-7.035220184E0,3.059038696E0,8.454721420E0
1.378288000E0,-2.498753815E0,-7.310198364E0,3.136427765E0,8.337862428E0
1.388354000E0,-3.646716614E0,-8.464148712E0,4.535119171E0,1.027169224E1
1.398420000E0,-7.670648804E0,-9.713450775E0,8.122708740E0,1.480433640E1
1.408486000E0,-1.036444702E1,-1.014455429E1,9.911788330E0,1.756636820E1
1.418552000E0,-1.611189514E1,-8.462651825E0,4.662504272E0,1.878692596E1
1.428617000E0,-1.744532227E1,-3.401526489E0,-9.028475189E0,1.993547129E1
1.438683000E0,-1.566986435E1,-4.107458496E-1,-1.234946915E1,1.995551926E1
1.448749000E0,-1.049587372E1,7.283853149E-1,-8.020171967E0,1.322940167E1
1.458815000E0,-7.260950775E0,-1.835632782E0,-6.060896301E0,9.634594846E0
1.468881000E0,-7.379803619E0,-6.106401672E0,-5.031486969E0,1.081968132E1
1.478947000E0,-7.276668091E0,-6.943011932E0,-1.900747375E0,1.023563158E1
1.489013000E0,-7.209308167E0,-7.518864441E0,-1.255738678E0,1.049210781E1
1.499079000E0,-7.091353455E0,-7.084467773E0,-4.942721558E-1,1.003599932E1
1.509145000E0,-6.183940430E0,-6.773264923E0,2.642005920E-1,9.175404019E0
1.519211000E0,-5.529651031E0,-7.069798279E0,1.368154907E-1,8.976514174E0
1.529276000E0,-5.894143066E0,-7.905959473E0,1.556912384E0,9.983440982E0
1.539342000E0,-6.091283112E0,-9.251361694E0,3.332819366E0,1.156715644E1
1.549408000E0,-6.103407898E0,-1.065514252E1,3.277733917E0,1.270933474E1
1.559474000E0,-6.396348724E0,-1.106648712E1,1.590143280E0,1.288056559E1
1.569539917E0,-6.509064331E0,-9.488169250E0,-1.754651184E0,1.163924718E1
1.579605917E0,-6.629264374E0,-6.295458527E0,-4.325554962E0,1.011387018E1
1.589671917E0,-7.290140076E0,-3.121309204E0,-6.874753876E0,1.049528248E1
1.599737917E0,-8.731193390E0,-8.146060181E-1,-8.012986908E0,1.187877435E1
1.609803917E0,-9.010213165E0,-4.041595459E-2,-6.709347839E0,1.123391842E1
1.619869917E0,-7.695796509E0,-1.258283386E0,-5.188360748E0,9.366303873E0
1.629934917E0,-6.570885773E0,-2.938389587E0,-3.136727142E0,7.851734227E0
1.640000917E0,-8.801696777E0,-4.358935547E0,5.801934814E-1,9.839045164E0
1.650066917E0,-1.281200729E1,-5.902226257E0,4.369413757E0,1.476738238E1
1.660132917E0,-8.270002441E0,-3.726500702E0,-7.241790619E0,1.160703576E1
1.670198917E0,-1.059885956E1,1.677262115E0,-4.701273651E0,1.171541745E1
1.680264917E0,-1.207508972E1,1.009201355E0,-5.247637482E0,1.320469531E1
1.690330917E0,-1.124162292E1,-4.300556946E-1,-6.766079865E0,1.312779001E1
1.700396917E0,-9.563462677E0,-1.537752228E0,-5.647456055E0,1.121241545E1
1.710462917E0,-9.057514801E0,-3.407064972E0,-4.876110077E0,1.083619470E1
1.720528917E0,-1.022942780E1,-4.642595673E0,-2.955304413E0,1.161588188E1
1.730593917E0,-1.180550034E1,-4.241280212E0,-1.772613831E0,1.266887745E1
1.740659917E0,-1.220127731E1,-2.735561371E0,7.963439941E-2,1.250443144E1
1.750725917E0,-1.108340195E1,-2.267335052E0,3.336860962E0,1.179479750E1
1.760791917E0,-1.494851440E1,-5.126988373E0,5.382806396E-1,1.581245834E1
1.770857917E0,-1.445678696E1,-4.599934387E0,-1.008901978E0,1.520447200E1
1.780923917E0,-1.255948242E1,-4.324507141E-1,8.707392883E-1,1.259705518E1
1.790989917E0,-1.193093948E1,-2.157313843E0,1.636696472E0,1.223438169E1
1.801055917E0,-1.024589355E1,-5.003944244E0,1.129850464E0,1.145837488E1
1.811121917E0,-7.636519775E0,-6.458619232E0,1.823358307E0,1.016635786E1
1.821187917E0,-6.528523865E0,-6.778354340E0,1.905387726E0,9.601990095E0
1.831252917E0,-6.112838287E0,-7.144942017E0,1.290316772E0,9.491148809E0
1.841318917E0,-6.115083618E0,-6.736291809E0,7.554789734E-1,9.129218120E0
1.851384917E0,-6.251450043E0,-5.144052887E0,1.310824127E0,8.201229642E0
1.861450917E0,-6.876101074E0,-3.550616455E0,2.201022949E0,8.045628951E0
1.871516917E0,-7.631879425E0,-2.680026855E0,2.431244202E0,8.446246259E0
1.881582917E0,-8.281977539E0,-2.320923615E0,2.185605011E0,8.874384916E0
1.891648917E0,-9.050180054E0,-2.423161011E0,1.237326965E0,9.450314614E0
1.901714917E0,-9.658365326E0,-2.011517029E0,3.507206726E-1,9.871840078E0
1.911780917E0,-9.143136749E0,-7.101232910E-1,-3.275189209E-1,9.176518585E0
1.921846917E0,-8.441096649E0,6.358776855E-1,-8.104147339E-1,8.503718311E0
1.931911917E0,-8.050259399E0,1.606159973E0,-1.238374786E0,8.301806934E0
1.941977917E0,-7.074738007E0,2.063159637E0,-1.348246307E0,7.491749706E0
1.952043917E0,-5.568121033E0,2.035467224E0,-1.111139374E0,6.031726897E0
1.962109917E0,-5.403164062E0,1.080303497E0,-5.993536377E-1,5.542604290E0
1.972175917E0,-5.426964569E0,1.960922241E-1,-2.583627319E-1,5.436648590E0
1.982241917E0,-6.232140198E0,-4.528083801E-1,3.576063538E-1,6.258792949E0
1.992307917E0,-6.623875580E0,-4.758604431E-1,1.300794983E-1,6.642220377E0
2.002373917E0,-6.479126587E0,1.043330383E-1,2.829116821E-2,6.480028326E0
2.012439917E0,-6.530469818E0,5.372328186E-1,-1.061293030E-1,6.553389854E0
2.022505917E0,-6.773713989E0,3.745211792E-1,-4.451742554E-1,6.798650413E0
2.032570917E0,-7.183861084E0,-3.158432007E-1,3.832031250E-2,7.190902965E0
2.042636917E0,-7.172335052E0,-1.342109070E0,1.067579956E0,7.374508378E0
2.052702917E0,-8.722361755E0,-2.764451294E0,2.908601532E0,9.601132663E0
2.062768917E0,-9.871671753E0,-4.001179504E0,3.571273499E0,1.123447084E1
2.072834917E0,-9.859696655E0,-3.512445831E0,4.477938080E0,1.138432358E1
2.082900917E0,-1.120345230E1,-3.375630341E0,6.092630310E0,1.319213280E1
2.092966917E0,-1.258223511E1,-3.918102264E0,5.798042908E0,1.439727291E1
2.103032917E0,-1.276006531E1,-4.135300598E0,4.630770264E0,1.419027875E1
2.113098917E0,-1.149429749E1,-4.104913788E0,2.715203705E0,1.250366039E1
2.123163917E0,-1.021894958E1,-3.996988220E0,5.626799011E-1,1.098724051E1
2.133229917E0,-9.071884918E0,-4.111649780E0,-1.953886871E0,1.014999674E1
2.143295917E0,-8.777896271E0,-4.795727234E0,-4.341571655E0,1.090411423E1
2.153361917E0,-8.979976044E0,-5.880970459E0,-5.936954041E0,1.226675208E1
2.163427917E0,-9.639504547E0,-6.451883240E0,-6.221961365E0,1.316281309E1
2.173493917E0,-9.908495178E0,-6.367907867E0,-5.985602875E0,1.321196310E1
2.183559917E0,-9.844428406E0,-5.330864410E0,-5.105133820E0,1.230419755E1
2.193625917E0,-9.866732025E0,-4.219874725E0,-3.649860077E0,1.133495576E1
2.203691917E0,-1.022508682E1,-3.008294220E0,-1.595532074E0,1.077719617E1
2.213757917E0,-1.113699051E1,-2.595303040E0,-7.647596741E-1,1.146093420E1
2.223822917E0,-1.128278732E1,-3.095562744E0,-3.148702240E0,1.211602758E1
2.233888917E0,-1.130793503E1,-3.716022491E0,-5.987997894E0,1.332420116E1
2.243954917E0,-1.143891266E1,-4.061504059E0,-6.734495544E0,1.388156937E1
2.254020917E0,-1.206446182E1,-4.004023590E0,-5.275030518E0,1.376260844E1
2.264086917E0,-1.283490967E1,-3.693120117E0,-3.574267273E0,1.382568005E1
2.274152917E0,-1.295960037E1,-3.619024200E0,-2.401306458E0,1.366802292E1
2.284218917E0,-1.296708481E1,-3.854484558E0,-1.696871338E0,1.363384436E1
2.294284917E0,-1.316227890E1,-4.299509125E0,-1.555714874E0,1.393382982E1
2.304350917E0,-1.369621857E1,-4.878804474E0,-1.787582703E0,1.464870602E1
2.314416917E0,-1.362960709E1,-5.725294189E0,-1.823208618E0,1.489527685E1
2.324481917E0,-1.225591370E1,-6.973847809E0,-1.070124664E0,1.414168097E1
2.334547917E0,-1.032103729E1,-7.449408875E0,-3.354524231E-1,1.273302916E1
2.344613917E0,-8.869356079E0,-7.974367218E0,-4.616400146E-1,1.193604295E1
2.354679917E0,-7.574548645E0,-8.918603668E0,-6.203100586E-1,1.171751096E1
2.364745917E0,-6.216722260E0,-9.832752686E0,-7.954458618E-1,1.166033426E1
2.374811917E0,-5.146298218E0,-9.969418488E0,-8.577163696E-1,1.125208282E1
2.384877917E0,-4.483027496E0,-1.029888336E1,-1.111738129E0,1.128718281E1
2.394943917E0,-4.116739197E0,-1.082653610E1,-1.368154907E0,1.166333029E1
2.405009917E0,-3.797752533E0,-1.127694946E1,-1.901346130E0,1.205021289E1
2.415075917E0,-3.645369415E0,-1.124162292E1,-3.010689240E0,1.219537018E1
2.425140917E0,-4.498744812E0,-1.007390121E1,-4.279750214E0,1.183378437E1
2.435206917E0,-5.574857025E0,-8.685238953E0,-5.140160980E0,1.152968609E1
2.445272917E0,-5.725144501E0,-7.561825104E0,-5.083129578E0,1.076088680E1
2.455338917E0,-5.920188904E0,-5.966293030E0,-5.074148254E0,9.817956492E0
2.465404917E0,-6.565646667E0,-5.652246094E0,-5.533093872E0,1.027962693E1
2.475470917E0,-7.646848297E0,-6.103258209E0,-5.607489166E0,1.127687831E1
2.485536917E0,-7.625891876E0,-6.301446075E0,-3.637585602E0,1.054013655E1
2.495602917E0,-7.062613220E0,-6.074517975E0,-1.838476868E0,9.495276263E0
2.505668917E0,-7.143594818E0,-5.684728546E0,-1.350940704E0,9.228874599E0
2.515733917E0,-7.329508209E0,-5.485941925E0,-1.418450317E0,9.264407736E0
2.525799917E0,-7.418872375E0,-5.268593903E0,-1.464404755E0,9.216410924E0
2.535865917E0,-6.952741699E0,-4.725373535E0,-1.215921478E0,8.494011845E0
2.545931917E0,-5.899232483E0,-4.195924530E0,-5.783972168E-1,7.262318493E0
2.555997917E0,-4.630770264E0,-3.720812531E0,-6.788383484E-1,5.979071887E0
2.566064125E0,-3.321143646E0,-3.260220337E0,-1.414558411E0,4.864155349E0
2.576130125E0,-2.705473938E0,-3.626808014E0,-1.332079926E0,4.716753388E0
2.586196125E0,-2.555186462E0,-3.911066895E0,-6.161187744E-1,4.712220756E0
2.596262125E0,-3.113824768E0,-3.628753967E0,-1.353186035E-1,4.783520792E0
2.606328125E0,-2.893333282E0,-3.568728790E0,-5.777984619E-2,4.594620895E0
2.616393125E0,-1.170865173E0,-3.954476624E0,7.065307617E-1,4.184255769E0
2.626459125E0,-1.402283936E0,-3.813320160E0,5.803431702E-1,4.104218449E0
2.636525125E0,-1.292711792E0,-3.813020782E0,-3.965254211E-1,4.045672215E0
2.646591125E0,-1.310674438E0,-4.217629395E0,-1.089284821E0,4.548934668E0
2.656657125E0,-1.829495544E0,-4.532873840E0,-1.739682312E0,5.188496290E0
2.666723125E0,-2.312840424E0,-4.787943420E0,-2.272274780E0,5.782461906E0
2.676789125E0,-2.720143433E0,-4.810396729E0,-2.540516968E0,6.082213696E0
2.686855125E0,-4.395459595E0,-4.564308472E0,-2.900218964E0,6.968805271E0
2.696921125E0,-7.376360779E0,-4.642745361E0,-4.776716766E0,9.938953964E0
2.706987125E0,-8.584049377E0,-4.766987000E0,-7.171885986E0,1.215919477E1
2.717052125E0,-8.613987122E0,-5.058580627E0,-9.286089478E0,1.363896880E1
2.727118125E0,-8.887767792E0,-5.156027985E0,-1.094000015E1,1.500868563E1
2.737184125E0,-1.078522202E1,-6.555767212E0,-9.818831635E0,1.599088967E1
2.747250125E0,-1.237761063E1,-7.396718445E0,-9.300160217E0,1.715837022E1
2.757316125E0,-1.356104965E1,-8.633446655E0,-1.228180984E1,2.023070246E1
2.767382125E0,-1.457279572E1,-1.088701035E1,-2.036634796E1,2.730716936E1
2.777448125E0,-1.239407639E1,-1.093521011E1,-1.891960648E1,2.512256872E1
2.787514125E0,-7.576195221E0,-8.923244019E0,-7.754324799E0,1.404110291E1
2.797580125E0,-3.788471832E0,-6.653364258E0,2.473306732E0,8.045931951E0
2.807645125E0,-2.269730072E0,-6.207142181E0,4.797822876E0,8.166969634E0
2.817711125E0,-3.213068390E0,-7.655230865E0,2.836451569E0,8.773358854E0
2.827777125E0,-5.911207581E0,-9.595196686E0,1.094523926E0,1.132290409E1
2.837843125E0,-7.375163269E0,-8.904233551E0,1.120420074E0,1.161609872E1
2.847909125E0,-7.038663025E0,-6.762337646E0,1.501527557E0,9.875554295E0
2.857975125E0,-5.802683258E0,-5.791456604E0,1.058299255E0,8.266323240E0
2.868041125E0,-5.463937683E0,-5.319338379E0,-2.245330811E-2,7.625646199E0
2.878107125E0,-4.700076141E0,-4.326004028E0,-9.785151672E-1,6.462392631E0
2.888173125E0,-2.672692108E0,-3.705693970E0,-5.950126648E-1,4.607547175E0
2.898239125E0,-1.123114471E0,-3.472329254E0,-3.267704773E-1,3.664046330E0
2.908304125E0,-3.367996216E-1,-3.330723724E0,-1.401086426E-1,3.350639483E0
2.918370125E0,3.504212952E-1,-3.351231079E0,4.113446045E-1,3.394517523E0
2.928436125E0,6.704557800E-1,-3.482508087E0,1.168021088E0,3.733851469E0
2.938502125E0,6.768923950E-1,-3.370540924E0,1.995949402E0,3.975241307E0
2.948568125E0,7.267387390E-1,-3.171305237E0,2.917433167E0,4.369981966E0
2.958634125E0,8.904981995E-1,-3.238066406E0,3.672313385E0,4.976338683E0
2.968700125E0,1.189576263E0,-5.326822815E0,4.514911194E0,7.083400036E0
2.978766125E0,-1.020727386E0,-1.632220779E1,6.432423706E0,1.757362872E1
2.988832125E0,-1.025218048E0,-2.323198883E1,1.159593613E1,2.598542114E1
2.998898125E0,-1.791923676E0,-2.337374405E1,1.176852722E1,2.623053820E1
3.008963125E0,-2.405946808E0,-2.563584000E1,1.006117767E1,2.764438765E1
3.019029125E0,-2.021246796E0,-2.782788162E1,9.372459869E0,2.943330491E1
3.029095125E0,-5.150788879E-1,-1.784184769E1,2.765798492E0,1.806229433E1
3.039161125E0,3.472778320E-2,-1.363379837E1,-1.931283875E0,1.376994994E1
3.049227125E0,-1.245410156E-1,-1.085452789E1,-1.575024719E0,1.096891012E1
3.059293125E0,-3.112178192E0,-6.125711517E0,1.811233521E0,7.105671084E0
3.069359125E0,-1.498683472E0,-5.535189514E0,2.597698059E0,6.295427731E0
3.079425125E0,-7.658074951E-1,-5.743107147E0,1.808988190E0,6.069775869E0
3.089491125E0,-1.344204712E-1,-6.271807709E0,1.103804626E0,6.369617371E0
3.099556125E0,2.148033142E-1,-6.993307343E0,4.171824646E-1,7.009031977E0
3.109622125E0,5.234614563E-1,-7.801476746E0,2.173480225E-1,7.822038831E0
3.119688125E0,-9.220825195E-2,-9.054371338E0,2.326162720E-1,9.057828273E0
3.129754125E0,-3.695814514E-1,-1.029828461E1,-1.936972046E-1,1.030673444E1
3.139820125E0,1.466949463E-1,-1.099897751E1,-1.691632233E0,1.112926975E1
3.149886125E0,5.384303284E-1,-1.124970612E1,-2.493664398E0,1.153534382E1
3.159952125E0,1.448986816E-1,-1.368289627E1,-6.489006042E0,1.514430076E1
3.170018125E0,-2.171983337E-1,-1.478116241E1,-6.827003174E0,1.628305591E1
3.180084125E0,-4.638853455E-1,-1.449061661E1,-5.031636658E0,1.534635223E1
3.190150125E0,-1.033301239E0,-1.378378647E1,-3.434458008E0,1.424275193E1
3.200215125E0,-9.424401855E-1,-1.249631378E1,-1.716181183E0,1.264876790E1
3.210281125E0,-7.402107239E-1,-1.104702759E1,-8.397537231E-1,1.110359927E1
3.220347125E0,-7.611671448E-1,-1.052685928E1,-4.475692749E-1,1.056382791E1
3.230413125E0,-9.434880066E-1,-1.068133804E1,-2.119592285E-1,1.072502115E1
3.240479125E0,-9.325607300E-1,-1.126901596E1,-1.583706665E-1,1.130864587E1
3.250545125E0,-6.740483093E-1,-1.189202042E1,-3.752696228E-1,1.191701800E1
3.260611125E0,-4.207749939E-1,-1.228046265E1,-8.325686646E-1,1.231584285E1
3.270677125E0,-1.544787598E-1,-1.233000961E1,-2.049088898E0,1.250007064E1
3.280743125E0,-3.592529297E-3,-1.193183762E1,-4.363575897E0,1.270470607E1
3.290808125E0,-8.966354370E-1,-1.125928619E1,-7.321724396E0,1.346042826E1
3.300874125E0,-2.323917389E0,-1.100496506E1,-8.173602905E0,1.390387113E1
3.310940125E0,-4.015848999E0,-1.127709915E1,-6.883136444E0,1.380860513E1
3.321006125E0,-5.446723480E0,-1.177586197E1,-4.470303955E0,1.372302223E1
3.331072125E0,-6.063441010E0,-1.275048523E1,-3.210972748E0,1.447931409E1
3.341138125E0,-6.645281067E0,-1.383917130E1,-2.118694153E0,1.549746068E1
3.351204125E0,-6.863676910E0,-1.428569275E1,-2.117945709E0,1.598989594E1
3.361270125E0,-6.687942352E0,-1.393946274E1,-3.150947571E0,1.577864585E1
3.371336125E0,-6.691385193E0,-1.320179672E1,-4.728367310E0,1.553768097E1
3.381402125E0,-6.653963013E0,-1.262324982E1,-6.283034363E0,1.559160609E1
3.391467125E0,-6.261030121E0,-1.232072891E1,-7.064559174E0,1.552123885E1
3.401533125E0,-5.210963745E0,-1.234033813E1,-6.483766937E0,1.488211417E1
3.411599125E0,-3.644770660E0,-1.287861877E1,-3.964805145E0,1.395932858E1
3.421665125E0,-2.115251312E0,-1.356988129E1,-7.502398682E-1,1.375422939E1
3.431731125E0,-8.937913513E-1,-1.409334274E1,1.365909576E0,1.418756081E1
3.441797125E0,-3.255729675E-1,-1.525283157E1,2.326911163E0,1.543273742E1
3.451863125E0,8.110134888E-1,-1.661020889E1,3.034938812E0,1.690466314E1
3.461929125E0,1.960473175E0,-1.784334457E1,3.588338013E0,1.830586164E1
3.471995125E0,3.283422089E0,-1.833731735E1,4.056714020E0,1.906554476E1
3.482060125E0,3.780388641E0,-1.758468246E1,3.781286774E0,1.837962256E1
3.492126125E0,2.913241882E0,-1.586326218E1,2.775977325E0,1.636569935E1
3.502192125E0,1.711540833E0,-1.399095566E1,1.240919495E0,1.414977362E1
3.512258125E0,7.262896729E-1,-1.222058716E1,4.870870972E-1,1.225183664E1
3.522324125E0,-3.577560425E-1,-1.067984116E1,2.670446777E-1,1.068916785E1
3.532390125E0,-4.839436340E-1,-9.846224670E0,2.040257263E-1,9.860221509E0
3.542456125E0,-9.413923645E-1,-9.195827179E0,1.842668152E-1,9.245723949E0
3.552522125E0,-1.586550751E0,-8.565487976E0,1.006207581E0,8.769103788E0
3.562588125E0,-2.416275330E0,-7.999814301E0,1.098864899E0,8.428696185E0
3.572653875E0,-3.514840851E0,-7.543862457E0,3.635939026E-1,8.330436213E0
3.582718875E0,-4.151766357E0,-7.074288940E0,-3.188369751E-1,8.208799237E0
3.592784875E0,-3.987258453E0,-6.648125153E0,-1.080453186E0,7.827079730E0
3.602850875E0,-3.818259888E0,-6.339766388E0,-1.473984833E0,7.546149860E0
3.612916875E0,-3.951033783E0,-6.145470428E0,-7.502398682E-1,7.344408390E0
3.622982875E0,-3.819158020E0,-5.966143341E0,9.502239990E-1,7.147290395E0
3.633048875E0,-3.431613922E0,-5.595813446E0,2.233056335E0,6.933660132E0
3.643114875E0,-2.696791992E0,-5.046904907E0,2.540217590E0,6.260722131E0
3.653180875E0,-1.682501221E0,-4.527784424E0,2.666255493E0,5.517296485E0
3.663246875E0,-8.449928284E-1,-4.303700409E0,2.844235382E0,5.227382232E0
3.673311875E0,1.212478638E-1,-4.457281036E0,3.133883057E0,5.450071403E0
3.683377875E0,1.057999878E0,-4.686604156E0,3.265010376E0,5.808951284E0
3.693443875E0,1.825004883E0,-4.483326874E0,3.051254883E0,5.721976847E0
3.703509875E0,2.318229218E0,-3.900738373E0,2.462379456E0,5.162679454E0
3.713575875E0,2.822081451E0,-3.191812592E0,1.823957062E0,4.634504364E0
3.723641875E0,3.109034729E0,-2.596051483E0,1.245559845E0,4.237570008E0
3.733707875E0,3.254083099E0,-2.356250153E0,7.972421265E-1,4.095920728E0
3.743773875E0,3.199895782E0,-2.440674591E0,3.338058472E-1,4.038273371E0
3.753839875E0,3.204386444E0,-2.798280945E0,-4.843927002E-1,4.281717531E0
3.763905875E0,3.495081940E0,-3.357068939E0,-1.853296051E0,5.188469512E0
3.773970875E0,3.671714630E0,-4.147724762E0,-3.933220825E0,6.793771786E0
3.784036875E0,4.005670166E0,-5.469625854E0,-7.545958099E0,1.014414531E1
3.794102875E0,4.410578156E0,-7.670349426E0,-1.138577316E1,1.441954543E1
3.804168875E0,3.137924652E0,-1.057401123E1,-1.495929199E1,1.858592751E1
3.814234875E0,3.791615295E-1,-1.454839645E1,-1.967972580E1,2.447633981E1
3.824300875E0,-3.023712158E0,-2.006427612E1,-2.145518372E1,2.953037284E1
3.834366875E0,-6.480773163E0,-2.505834091E1,-1.569725739E1,3.027085660E1
3.844432875E0,-6.444249115E0,-2.605002869E1,-8.936865692E0,2.828426965E1
3.854498875E0,-3.541934509E0,-2.022908340E1,-6.725214844E0,2.160994285E1
3.864563875E0,-2.243833923E0,-1.323996735E1,-6.108048248E0,1.475261941E1
3.874629875E0,-1.653461609E0,-8.823251953E0,-4.571194153E0,1.007370470E1
3.884695875E0,-1.131197662E0,-6.450685730E0,-4.293820953E0,7.831210182E0
3.894761875E0,-5.857319641E-1,-6.453080750E0,-3.909270630E0,7.567544513E0
3.904827875E0,2.547702026E-1,-8.066575470E0,-3.731141052E0,8.891341925E0
3.914893875E0,1.807940369E0,-1.038974442E1,-5.668861542E0,1.197294569E1
3.924959875E0,4.045038300E0,-1.446966019E1,-5.597460022E0,1.603324544E1
3.935025875E0,4.721481628E0,-1.864298172E1,1.633702698E0,1.930083264E1
3.945091875E0,4.067790985E0,-1.891631332E1,6.676566010E0,2.046827709E1
3.955156875E0,2.329904938E0,-1.510089752E1,7.259154510E0,1.691629059E1
3.965222875E0,1.520987091E0,-1.010847931E1,7.056176605E0,1.242112652E1
3.975288875E0,1.669478302E0,-6.696474609E0,5.814957733E0,9.024614309E0
3.985354875E0,1.526974640E0,-4.979544983E0,4.824467468E0,7.099507458E0
3.995420875E0,1.097517700E0,-4.279301147E0,4.072431335E0,6.008465727E0
4.005486875E0,7.436535645E-1,-4.300556946E0,3.359164581E0,5.507431103E0
4.015552875E0,5.899232483E-1,-4.994214478E0,2.862198029E0,5.786394840E0
4.025618875E0,9.599537659E-1,-6.054010620E0,2.735261993E0,6.712243589E0
4.035684875E0,1.381926270E0,-7.471263428E0,2.738854523E0,8.076560005E0
4.045750875E0,1.047072601E0,-9.473050690E0,2.934048615E0,9.972145791E0
4.055815875E0,6.825805664E-2,-1.178544205E1,3.483406219E0,1.228964696E1
4.065881875E0,-1.594933319E0,-1.353425537E1,4.076921997E0,1.422466779E1
4.075947875E0,-3.250789948E0,-1.439526489E1,4.233795776E0,1.535305550E1
4.086013875E0,-4.512216797E0,-1.479717911E1,4.038901062E0,1.598841242E1
4.096079875E0,-5.144052887E0,-1.420920181E1,3.347788239E0,1.547806132E1
4.106145875E0,-5.134921875E0,-1.239647141E1,2.738555145E0,1.369451022E1
4.116211875E0,-4.905598755E0,-1.035247192E1,2.095342712E0,1.164598794E1
4.126277875E0,-3.941154327E0,-9.042695618E0,1.349144440E0,9.956065095E0
4.136343875E0,-3.427422638E0,-8.187074890E0,8.503816223E-1,8.916197065E0
4.146408875E0,-3.273991699E0,-7.340435486E0,1.047821045E-3,8.037475715E0
4.156474875E0,-2.940784607E0,-6.689289551E0,-9.925859070E-1,7.374282038E0
4.166540875E0,-2.644999695E0,-6.541995850E0,-1.770368500E0,7.275158947E0
4.176606875E0,-1.429676971E0,-6.660998383E0,-3.779041443E0,7.790637325E0
4.186672875E0,1.556762695E-2,-7.266040192E0,-6.062093811E0,9.462798941E0
4.196738875E0,2.106868744E0,-8.557255096E0,-8.504115601E0,1.224685645E1
4.206804875E0,3.296744385E0,-9.909243622E0,-8.788224792E0,1.364897534E1
4.216870875E0,2.018552399E0,-1.090587112E1,-5.983207855E0,1.260203773E1
4.226936875E0,-1.155596924E-1,-1.034543655E1,-3.798500977E0,1.102134389E1
4.237002875E0,-1.887425079E0,-9.405840454E0,-1.858834534E0,9.771769231E0
4.247067875E0,-2.649640045E0,-8.947044525E0,-3.580554199E-1,9.338008449E0
4.257133875E0,-2.648143158E0,-8.810827789E0,4.891827393E-1,9.213177968E0
4.267199875E0,-2.566413116E0,-8.710686035E0,7.608677673E-1,9.112708008E0
4.277265875E0,-2.462080078E0,-8.830736389E0,7.021897888E-1,9.194390354E0
4.287331875E0,-2.218985596E0,-9.184001770E0,6.101312256E-1,9.467948336E0
4.297397875E0,-1.763333130E0,-9.673633575E0,9.756710815E-1,9.881318957E0
4.307463875E0,-1.331780548E0,-1.019140686E1,1.568588104E0,1.039706121E1
4.317529875E0,-9.345066833E-1,-1.068253555E1,2.094743958E0,1.092601578E1
4.327595875E0,-4.161346436E-1,-1.136736145E1,2.329904938E0,1.161113825E1
4.337660875E0,2.676434326E-1,-1.226594284E1,1.714085541E0,1.238802147E1
4.347726875E0,1.177451477E0,-1.301154236E1,-2.817141724E-1,1.306774615E1
4.357792875E0,1.621278534E0,-1.273776169E1,-3.554807739E0,1.332350461E1
4.367858875E0,6.511459351E-2,-1.164473465E1,-8.140372009E0,1.420808718E1
4.377924875E0,-1.827998657E0,-1.131257538E1,-1.048749115E1,1.553394385E1
4.387990875E0,-4.294270020E0,-1.143187729E1,-1.011910721E1,1.585953669E1
4.398056875E0,-6.633904724E0,-1.178648987E1,-7.239395599E0,1.534075891E1
4.408122875E0,-7.748636627E0,-1.271830215E1,-3.770958252E0,1.536283520E1
4.418188875E0,-8.146209869E0,-1.394724655E1,-1.564247131E0,1.622754728E1
4.428253875E0,-8.203241272E0,-1.482876343E1,-7.646099854E-1,1.696378556E1
4.438319875E0,-7.960296478E0,-1.523831177E1,-1.005758514E0,1.722161478E1
4.448385875E0,-7.902516632E0,-1.513442780E1,-1.887275391E0,1.717738287E1
4.458451875E0,-7.762557678E0,-1.462398926E1,-2.924917603E0,1.681289703E1
4.468517875E0,-6.884333954E0,-1.398766251E1,-4.030069427E0,1.610249099E1
4.478583875E0,-5.207371216E0,-1.332439178E1,-5.269941101E0,1.524560299E1
4.488649875E0,-3.087928619E0,-1.300510574E1,-5.773044891E0,1.456008674E1
4.498715875E0,-7.481442261E-1,-1.328158081E1,-4.273762665E0,1.397229959E1
4.508781875E0,1.094074860E0,-1.414693130E1,-1.495390320E0,1.426775586E1
4.518846875E0,2.374961243E0,-1.501512589E1,8.333171082E-1,1.522461374E1
4.528912875E0,3.303031311E0,-1.559561874E1,2.328108673E0,1.611066199E1
4.538978875E0,4.126918030E0,-1.625335098E1,3.031346283E0,1.704088997E1
4.549044875E0,4.835245056E0,-1.696646805E1,3.719016266E0,1.802974528E1
4.559110875E0,5.467829590E0,-1.667622162E1,4.450545044E0,1.810527214E1
4.569176375E0,5.431155853E0,-1.506257721E1,4.002676392E0,1.650454799E1
4.579242375E0,4.719086609E0,-1.315060318E1,2.768043823E0,1.424325135E1
4.589308375E0,3.694766693E0,-1.170760391E1,2.042951660E0,1.244559929E1
4.599374375E0,2.476599884E0,-1.047342041E1,1.494641876E0,1.086554354E1
4.609440375E0,1.264720001E0,-9.595795441E0,9.648934937E-1,9.726758261E0
4.619505375E0,3.692820740E-1,-9.068591766E0,-9.205856323E-2,9.076574280E0
4.629571375E0,2.168989563E-1,-9.253307648E0,-1.175655212E0,9.330215044E0
4.639637375E0,-6.204597473E-1,-9.746681671E0,-7.656578064E-1,9.796377176E0
4.649703375E0,-2.194436646E0,-9.956096191E0,-1.023870850E-1,1.019558172E1
4.659769375E0,-3.446882172E0,-9.696835327E0,-4.775070190E-2,1.029135036E1
4.669835375E0,-4.379293213E0,-9.350605316E0,-4.334985352E-1,1.033440612E1
4.679901375E0,-4.860243073E0,-8.539442139E0,-8.943901062E-1,9.866304700E0
4.689967375E0,-4.821024628E0,-7.624394989E0,-7.246430969E-1,9.049794751E0
4.700033375E0,-4.081113281E0,-7.053033142E0,6.900650024E-1,8.177832954E0
4.710098375E0,-3.430266724E0,-6.466103668E0,2.346670074E0,7.686617389E0
4.720164375E0,-2.659519501E0,-5.650150452E0,3.072660370E0,6.959776279E0
4.730230375E0,-1.104553070E0,-5.088518372E0,2.842888184E0,5.932543293E0
4.740296375E0,3.122506714E-1,-4.662653961E0,2.830314331E0,5.463380058E0
4.750362375E0,8.279283142E-1,-4.349804535E0,3.430416412E0,5.601251784E0
4.760428375E0,1.433419189E0,-4.074826355E0,4.088298340E0,5.947527529E0
4.770494375E0,2.111808472E0,-3.594325562E0,4.410578156E0,6.068946443E0
4.780560375E0,2.522404633E0,-2.999761963E0,4.245920563E0,5.778316224E0
4.790626375E0,2.897075500E0,-2.324366455E0,3.736829224E0,5.268739747E0
4.800692375E0,3.093167725E0,-1.831142120E0,3.536695404E0,5.042715778E0
4.810757375E0,2.948568420E0,-1.664388885E0,3.455713806E0,4.837995866E0
4.820823375E0,2.728975067E0,-1.783840485E0,3.259471893E0,4.610157136E0
4.830889375E0,2.519560547E0,-2.088457031E0,2.710862732E0,4.249542902E0
4.840955375E0,2.417622528E0,-2.401755524E0,1.631457367E0,3.778224639E0
4.851021375E0,2.358345795E0,-2.700085144E0,8.173004150E-2,3.585935648E0
4.861087375E0,2.333198090E0,-3.373834076E0,-2.009571075E0,4.567816284E0
4.871153375E0,2.696342926E0,-4.922214203E0,-5.851032715E0,8.107591607E0
4.881219375E0,3.504063263E0,-8.081694031E0,-1.292427383E1,1.564062313E1
4.891285375E0,4.296066284E-1,-1.380998199E1,-2.580828140E1,2.927400816E1
4.901350375E0,-4.077071686E0,-2.223655884E1,-3.097373978E1,3.834657244E1
4.911416375E0,-7.524402924E0,-2.790362411E1,-1.870360565E1,3.442460955E1
4.921482375E0,-7.108417969E0,-2.783656357E1,-1.183528839E1,3.107214071E1
4.931548375E0,-3.344944153E0,-2.263068924E1,-9.710457001E0,2.485215729E1
4.941614375E0,-1.970502319E0,-1.513218246E1,-6.964567108E0,1.677411758E1
4.951680375E0,-2.505789185E0,-1.000429596E1,-4.216431885E0,1.114195741E1
4.961746375E0,-2.264490967E0,-6.539900208E0,-3.085533600E0,7.577514874E0
4.971812375E0,-1.467548218E0,-5.557642822E0,-2.736309814E0,6.366198466E0
4.981878375E0,-4.074526978E-1,-7.260801086E0,-1.776655426E0,7.486104102E0
4.991943375E0,1.388213196E0,-1.073821976E1,-2.019600220E0,1.101432179E1
5.002009375E0,4.953499146E0,-1.558529022E1,-3.818559265E0,1.679344574E1
5.012075375E0,8.414302368E0,-2.134591095E1,-2.434836731E0,2.307329254E1
5.022141375E0,7.912396088E0,-2.221859619E1,2.854114838E0,2.375748303E1
5.032207375E0,4.582570496E0,-1.590278000E1,5.532046051E0,1.744998274E1
5.042273375E0,2.955304413E0,-9.278605042E0,6.135291595E0,1.150948038E1
5.052339375E0,2.582579498E0,-5.346282349E0,6.084247742E0,8.501207114E0
5.062405375E0,2.463277588E0,-3.554508362E0,5.673950958E0,7.134142250E0
5.072471375E0,1.994452515E0,-3.257525940E0,5.244344330E0,6.487870493E0
5.082536375E0,1.372196503E0,-3.661685486E0,4.392765198E0,5.881092579E0
5.092602375E0,1.148711243E0,-4.620741119E0,3.507356415E0,5.913741204E0
5.102668375E0,1.725312195E0,-5.746100922E0,2.769091644E0,6.607741407E0
5.112734375E0,2.426304474E0,-7.029382324E0,2.514321442E0,7.849903284E0
5.122800375E0,2.527793427E0,-8.883426819E0,2.925965424E0,9.688461452E0
5.132866375E0,1.638492737E0,-1.111857880E1,3.711531830E0,1.183566312E1
5.142932375E0,-6.197113037E-2,-1.321826248E1,4.538711700E0,1.397591526E1
5.152998375E0,-1.927391968E0,-1.473281296E1,5.019960938E0,1.568345068E1
5.163064375E0,-3.328029327E0,-1.548889069E1,4.954846344E0,1.659915709E1
5.173129375E0,-4.158502350E0,-1.522618698E1,4.394262085E0,1.638412192E1
5.183195375E0,-4.396058350E0,-1.348485809E1,3.240461426E0,1.454879091E1
5.193261375E0,-4.392615509E0,-1.123608444E1,2.067500610E0,1.224006631E1
5.203327375E0,-3.855682068E0,-9.817185059E0,1.188079376E0,1.061390311E1
5.213393375E0,-3.109034729E0,-9.162147217E0,3.592529297E-1,9.681947182E0
5.223459375E0,-2.694546661E0,-8.621022491E0,-3.932322693E-1,9.040865120E0
5.233525375E0,-2.519560547E0,-8.315657501E0,-1.078956299E0,8.755711948E0
5.243591375E0,-2.015558624E0,-8.198600922E0,-2.243833923E0,8.735807021E0
5.253657375E0,-8.705895996E-1,-8.173902283E0,-4.210144958E0,9.235579319E0
5.263722375E0,1.457219696E0,-8.141120453E0,-7.229067078E0,1.098456837E1
5.273788375E0,3.004402313E0,-8.210875397E0,-7.714058533E0,1.165982878E1
5.283854375E0,2.172582092E0,-8.613987122E0,-5.816903687E0,1.061872194E1
5.293920375E0,2.959346008E-1,-9.136251068E0,-3.407663727E0,9.755553954E0
5.303986375E0,-1.060694275E0,-9.301956482E0,-1.376836853E0,9.462935404E0
5.314052375E0,-1.696122894E0,-9.065298615E0,-4.864883423E-2,9.222734874E0
5.324118375E0,-1.705104218E0,-8.427175598E0,5.554948425E-1,8.615871603E0
5.334184375E0,-1.529818726E0,-7.751480713E0,7.315287781E-1,7.934792557E0
5.344250375E0,-1.192570038E0,-7.381749573E0,8.336164856E-1,7.523786712E0
5.354316375E0,-7.379653931E-1,-7.397466888E0,8.123606873E-1,7.478438284E0
5.364381375E0,-3.649411011E-1,-7.714806976E0,7.652087402E-1,7.761248167E0
5.374447375E0,-2.782713318E-1,-8.189320221E0,7.780819702E-1,8.230905914E0
5.384513375E0,-4.424798584E-1,-8.774154053E0,8.855584717E-1,8.829823417E0
5.394579375E0,-4.523593140E-1,-9.411378937E0,1.290017395E0,9.510143391E0
5.404645375E0,-6.301895142E-2,-1.003183868E1,1.762285309E0,1.018564717E1
5.414711375E0,6.301895142E-1,-1.088671097E1,1.710343323E0,1.103824664E1
5.424777375E0,1.352736969E0,-1.198856964E1,8.256829834E-1,1.209286780E1
5.434843375E0,1.440005493E0,-1.298639465E1,-1.494043121E0,1.315113025E1
5.444909375E0,2.832110596E-1,-1.284434006E1,-4.466262360E0,1.360164620E1
5.454974375E0,-1.890867920E0,-1.237282059E1,-6.977889404E0,1.433014345E1
5.465040375E0,-3.780987396E0,-1.225411743E1,-8.908724213E0,1.561488478E1
5.475106375E0,-5.086422729E0,-1.255274643E1,-7.674690399E0,1.556740222E1
5.485172375E0,-6.389762421E0,-1.350925735E1,-5.016518097E0,1.576370997E1
5.495238375E0,-7.170089722E0,-1.481678833E1,-2.435585175E0,1.663969586E1
5.505304375E0,-7.694000244E0,-1.565983521E1,-1.489103394E0,1.751129656E1
5.515370375E0,-8.024812317E0,-1.570369400E1,-1.531914368E0,1.770170556E1
5.525436375E0,-7.939789124E0,-1.537557632E1,-2.082319794E0,1.742941922E1
5.535502375E0,-7.195087738E0,-1.524385025E1,-2.807112579E0,1.708871379E1
5.545567375E0,-5.886958008E0,-1.520837402E1,-2.901566162E0,1.656411788E1
5.555633375E0,-4.318070526E0,-1.460707443E1,-3.854933624E0,1.571218857E1
5.565699375E0,-2.604583740E0,-1.394784531E1,-5.527854767E0,1.522771892E1
5.575765750E0,-5.843847656E-1,-1.321556808E1,-7.182962952E0,1.505283037E1
5.585831750E0,1.528471527E0,-1.304342606E1,-6.711892548E0,1.474844704E1
5.595897750E0,3.101550293E0,-1.341779755E1,-3.436703339E0,1.419393656E1
5.605963750E0,3.702251129E0,-1.369217697E1,-8.801696777E-2,1.418415033E1
5.616029750E0,3.583398285E0,-1.402478531E1,2.110910339E0,1.462844109E1
5.626095750E0,3.943998413E0,-1.478804810E1,3.376378784E0,1.567295198E1
5.636160750E0,4.776567078E0,-1.550161423E1,4.245172119E0,1.676714415E1
5.646226750E0,5.548362122E0,-1.560879135E1,4.980892181E0,1.729820732E1
5.656292750E0,6.249653778E0,-1.460527817E1,5.200784912E0,1.671587528E1
5.666358750E0,6.017336884E0,-1.316078201E1,4.628075867E0,1.519320942E1
5.676424750E0,5.366939392E0,-1.203377563E1,3.930975494E0,1.375021319E1
5.686490750E0,4.353397064E0,-1.087338867E1,3.492237854E0,1.222204453E1
5.696556750E0,2.890788574E0,-9.772577820E0,2.867736511E0,1.058696597E1
5.706622750E0,1.311422882E0,-8.987759857E0,1.891766052E0,9.277846519E0
5.716688750E0,1.161584473E-1,-8.926387482E0,3.631448364E-1,8.934526313E0
5.726753750E0,-4.781057739E-1,-9.333690491E0,-1.153800659E0,9.416879487E0
5.736819750E0,-1.304537201E0,-9.579030304E0,-2.096091156E0,9.892079509E0
5.746885750E0,-1.978735199E0,-9.533824310E0,-2.211800537E0,9.985051857E0
5.756951750E0,-2.777025146E0,-9.470805359E0,-2.027683411E0,1.007568969E1
5.767017750E0,-3.735332336E0,-9.086105347E0,-1.258283386E0,9.904205931E0
5.777083750E0,-4.086651764E0,-8.525521088E0,-1.790277100E-1,9.456071244E0
5.787149750E0,-3.799698486E0,-8.145910492E0,1.036295013E0,9.048064638E0
5.797215750E0,-3.180585938E0,-7.773185577E0,2.151625671E0,8.669950055E0
5.807281750E0,-2.053429871E0,-7.115453339E0,2.798879700E0,7.917068777E0
5.817346750E0,-2.718347168E-1,-6.273304596E0,2.913092194E0,6.922019272E0
5.827412750E0,1.110839996E0,-5.544021149E0,3.119812317E0,6.457814250E0
5.837478750E0,1.812580719E0,-4.972210236E0,3.716471558E0,6.466875933E0
5.847544750E0,2.325863342E0,-4.417014771E0,4.151916046E0,6.492924351E0
5.857610750E0,2.758164368E0,-3.859873352E0,4.338128815E0,6.428487737E0
5.867676750E0,3.173999634E0,-3.211870880E0,4.199217682E0,6.166345544E0
5.877742750E0,3.545527039E0,-2.550246735E0,3.942651215E0,5.883792908E0
5.887808750E0,3.725153503E0,-1.765877838E0,3.618575134E0,5.485360441E0
5.897874750E0,3.689527588E0,-9.891430664E-1,3.198099518E0,4.981852904E0
5.907939750E0,3.336112518E0,-5.908213806E-1,2.922372894E0,4.474257477E0
5.918005750E0,2.736758881E0,-7.090754700E-1,2.870580597E0,4.029003618E0
5.928071750E0,2.362686768E0,-1.199605408E0,2.432441711E0,3.596959073E0
5.938137750E0,2.202370148E0,-1.932331696E0,1.187929688E0,3.161568755E0
5.948203750E0,2.671195221E0,-3.063978424E0,-9.545649719E-1,4.175457098E0
5.958269750E0,3.734284515E0,-5.063220978E0,-4.750221863E0,7.883254103E0
5.968335750E0,5.151836700E0,-8.772956543E0,-1.341465408E1,1.683624460E1
5.978401750E0,4.172872467E0,-1.615784958E1,-2.945380051E1,3.385284821E1
5.988467750E0,5.810916138E-1,-2.620226212E1,-3.268423279E1,4.189457340E1
5.998532750E0,-4.223167877E0,-3.049638245E1,-1.790606415E1,3.561589003E1
6.008598750E0,-5.762566681E0,-2.765199738E1,-1.151719986E1,3.050386904E1
6.018664750E0,-2.789449310E0,-2.071377548E1,-1.030217651E1,2.330185321E1
6.028730750E0,-1.484612732E0,-1.367586090E1,-6.871011658E0,1.537673722E1
6.038796750E0,-1.340462494E0,-9.194779358E0,-3.876638489E0,1.006822393E1
6.048862750E0,-1.466500397E0,-6.387666779E0,-2.528990936E0,7.024863375E0
6.058928750E0,-1.243613892E0,-4.978946228E0,-1.202748871E0,5.270966316E0
6.068994750E0,-2.423460388E-1,-5.317691803E0,1.745370483E-1,5.326071807E0
6.079060750E0,1.082997894E0,-7.315736847E0,1.026714935E0,7.466393615E0
6.089125750E0,3.293600922E0,-1.061023590E1,2.034269714E0,1.129438649E1
6.099191750E0,7.142247620E0,-1.462354019E1,3.204386444E0,1.658697445E1
6.109257750E0,9.787247314E0,-1.739846970E1,3.563938751E0,2.027803287E1
6.119323750E0,8.530161438E0,-1.769036270E1,4.116888885E0,2.006642372E1
6.129389750E0,5.568270721E0,-1.438807983E1,4.427942047E0,1.605083022E1
6.139455750E0,4.090843048E0,-9.170080719E0,3.765120392E0,1.072387564E1
6.149521750E0,3.784280548E0,-6.668632507E0,3.478167114E0,8.419565622E0
6.159587750E0,3.807033234E0,-6.267017670E0,2.918331299E0,7.892127095E0
6.169653750E0,3.528312836E0,-6.580166473E0,2.297272797E0,7.811852827E0
6.179718750E0,2.894830170E0,-6.877448273E0,2.058219910E0,7.740517144E0
6.189784750E0,2.528392181E0,-6.944508820E0,1.859133911E0,7.620718383E0
6.199850750E0,2.498304749E0,-7.002737732E0,1.810934143E0,7.652407780E0
6.209916750E0,2.421364746E0,-7.652985535E0,1.896855469E0,8.247984936E0
6.219982750E0,1.995650024E0,-8.673712921E0,2.411784668E0,9.221313363E0
6.230048750E0,1.196761322E0,-1.028526169E1,2.996468811E0,1.077950235E1
6.240114750E0,9.056167603E-2,-1.204111038E1,3.703598328E0,1.259814198E1
6.250180750E0,-1.138532410E0,-1.328547272E1,4.163891144E0,1.396918147E1
6.260246750E0,-2.341131592E0,-1.383243530E1,4.460873566E0,1.472129602E1
6.270311750E0,-3.130739594E0,-1.337857910E1,4.290976868E0,1.439445698E1
6.280377750E0,-3.532803497E0,-1.225232117E1,3.314557343E0,1.317521783E1
6.290443750E0,-3.653602295E0,-1.115061218E1,2.449057159E0,1.198677783E1
6.300509750E0,-3.142415314E0,-1.003198837E1,1.661245422E0,1.064308701E1
6.310575750E0,-2.615061951E0,-8.944200439E0,7.638615417E-1,9.349906682E0
6.320641750E0,-2.245181122E0,-8.033344574E0,-9.340576172E-2,8.341713730E0
6.330707750E0,-1.574875031E0,-7.247927856E0,-1.177900543E0,7.510002614E0
6.340773750E0,-1.335822144E0,-6.926546173E0,-1.786085815E0,7.276782615E0
6.350839750E0,-1.051263885E0,-7.194638672E0,-2.185305634E0,7.592334429E0
6.360904750E0,-1.252146149E0,-7.644602966E0,-2.241588593E0,8.064275783E0
6.370970750E0,-1.278042297E0,-8.201295319E0,-2.107766876E0,8.563721050E0
6.381036750E0,-1.246907043E-1,-8.524772644E0,-2.964136047E0,9.026261624E0
6.391102750E0,2.215542755E0,-8.540939026E0,-4.960235138E0,1.012226268E1
6.401168750E0,3.899840240E0,-8.898096313E0,-6.307134247E0,1.158295361E1
6.411234750E0,3.381019135E0,-9.734257507E0,-5.607788544E0,1.173176679E1
6.421300750E0,2.124382324E0,-1.028391449E1,-3.360661469E0,1.102569467E1
6.431366750E0,2.275268555E-1,-1.040471329E1,-1.254690857E0,1.048256057E1
6.441432750E0,-8.584648132E-1,-1.032043854E1,3.697311401E-2,1.035614699E1
6.451497750E0,-1.338516541E0,-1.038555313E1,6.685098267E-1,1.049277112E1
6.461563750E0,-1.379231873E0,-1.035606445E1,7.839198303E-1,1.047687367E1
6.471629750E0,-1.224902802E0,-1.025697052E1,7.247927856E-1,1.035524774E1
6.481695750E0,-1.110540619E0,-1.019829254E1,7.650590515E-1,1.028706890E1
6.491761750E0,-1.202599182E0,-1.042043060E1,9.648934937E-1,1.053388049E1
6.501827750E0,-1.281784515E0,-1.101050354E1,1.101708984E0,1.113947586E1
6.511893750E0,-8.922944641E-1,-1.155641830E1,1.025966492E0,1.163613341E1
6.521959750E0,1.995350647E-1,-1.188184158E1,8.128097534E-2,1.188379486E1
6.532025750E0,1.440005493E0,-1.195354248E1,-1.898352356E0,1.218870524E1
6.542090750E0,1.596729584E0,-1.159578644E1,-5.618715820E0,1.298390450E1
6.552156750E0,-6.001020813E-1,-1.207688599E1,-8.987310791E0,1.506595675E1
6.562222750E0,-2.755919037E0,-1.291035278E1,-9.022188263E0,1.598975234E1
6.572288625E0,-4.287683716E0,-1.343246704E1,-6.146518250E0,1.538164780E1
6.582354625E0,-5.169499969E0,-1.407852356E1,-2.826272736E0,1.526159799E1
6.592420625E0,-5.597310333E0,-1.471874222E1,-1.032552795E0,1.578091951E1
6.602486625E0,-5.553900604E0,-1.492306732E1,-6.593788147E-1,1.593670388E1
6.612552625E0,-4.909041595E0,-1.451935684E1,-1.425335999E0,1.539292029E1
6.622618625E0,-4.236639862E0,-1.407343414E1,-2.995570679E0,1.499947031E1
6.632683625E0,-3.839066620E0,-1.433314407E1,-4.410578156E0,1.548000811E1
6.642749625E0,-3.561543732E0,-1.483594849E1,-4.909939728E0,1.602802138E1
6.652815625E0,-2.655328217E0,-1.456426346E1,-5.367687836E0,1.574740013E1
6.662881625E0,-1.076261902E0,-1.394485153E1,-6.442303162E0,1.539871728E1
6.672947625E0,9.389973450E-1,-1.348979782E1,-6.562652893E0,1.503079420E1
6.683013625E0,2.644850006E0,-1.322529785E1,-3.814817047E0,1.401629637E1
6.693079625E0,3.661984863E0,-1.307066940E1,-1.945953369E-1,1.357536000E1
6.703145625E0,4.013154602E0,-1.331062042E1,2.393971710E0,1.410705945E1
6.713211625E0,4.575385437E0,-1.412417862E1,3.770509186E0,1.531807145E1
6.723276625E0,5.816903687E0,-1.512245270E1,4.315226440E0,1.676741254E1
6.733342625E0,7.228168945E0,-1.548948944E1,4.711901550E0,1.773055909E1
6.743408625E0,7.934100952E0,-1.491528351E1,4.988526306E0,1.761536360E1
6.753474625E0,7.809559937E0,-1.372480911E1,4.866679688E0,1.652404862E1
6.763540625E0,6.613696747E0,-1.214274902E1,4.359085236E0,1.449789511E1
6.773606625E0,4.737198944E0,-1.068043991E1,4.099674683E0,1.238225274E1
6.783672625E0,1.839075623E0,-9.141939240E0,3.393443298E0,9.923341656E0
6.793738625E0,4.546046448E-1,-8.325387268E0,9.798623657E-1,8.395169373E0
6.803803625E0,7.448510742E-1,-8.532855835E0,-1.563947754E0,8.706914746E0
6.813869625E0,-2.395019531E-2,-9.051976318E0,-2.817590790E0,9.480383259E0
6.823935625E0,-9.657916260E-1,-9.670190735E0,-3.241808624E0,1.024473843E1
6.834001625E0,-2.355651398E0,-1.016985168E1,-2.954555969E0,1.084916484E1
6.844067625E0,-3.604504395E0,-1.018422180E1,-1.844614105E0,1.095962713E1
6.854133625E0,-4.142485657E0,-9.836644592E0,-6.292913818E-1,1.069185540E1
6.864199625E0,-3.751199341E0,-9.302555237E0,3.454815674E-1,1.003635332E1
6.874265625E0,-2.661914520E0,-8.615783386E0,1.156944122E0,9.091536282E0
6.884331625E0,-1.555714874E0,-7.842790833E0,2.020947418E0,8.247050702E0
6.894396625E0,-7.264393616E-1,-6.919061737E0,2.493963776E0,7.390601111E0
6.904462625E0,2.850073242E-1,-5.917494507E0,2.637664948E0,6.485001680E0
6.914528625E0,1.235830078E0,-5.050497437E0,2.993025970E0,5.999417038E0
6.924594625E0,2.027683411E0,-4.414170685E0,3.592379608E0,6.041654914E0
6.934660625E0,2.739153900E0,-3.834126892E0,4.011208649E0,6.188157071E0
6.944726625E0,3.199746094E0,-3.221750336E0,4.146676941E0,6.149225963E0
6.954792625E0,3.406316528E0,-2.631527710E0,4.179608459E0,5.999754766E0
6.964858625E0,3.464545441E0,-1.882335663E0,3.942800903E0,5.576014851E0
6.974924625E0,3.456013184E0,-1.211730194E0,3.670068054E0,5.184758115E0
6.984989625E0,3.158282318E0,-9.327104187E-1,3.441493378E0,4.763252313E0
6.995055625E0,2.661166077E0,-1.153052216E0,3.282673645E0,4.380328819E0
7.005121625E0,2.201172638E0,-1.686393127E0,3.080743561E0,4.144884033E0
7.015187625E0,2.113005981E0,-2.166295166E0,2.545007629E0,3.954072945E0
7.025253625E0,2.354304199E0,-2.696043549E0,1.396296387E0,3.842010239E0
7.035319625E0,2.913840637E0,-3.446732483E0,-5.960604858E-1,4.552550952E0
7.045385625E0,3.893253937E0,-4.747078400E0,-3.865860901E0,7.255140250E0
7.055451625E0,5.558990021E0,-7.438930664E0,-1.083327209E1,1.426884171E1
7.065517625E0,6.617289276E0,-1.295570847E1,-2.508797928E1,2.900078626E1
7.075582625E0,3.646417236E0,-2.230212250E1,-3.272315186E1,3.976789778E1
7.085648625E0,-1.478924561E-1,-2.942835342E1,-2.272484344E1,3.718155950E1
7.095714625E0,-2.673590240E0,-2.913945419E1,-1.292457321E1,3.198906795E1
7.105780625E0,-1.400936737E0,-2.466465958E1,-1.029588959E1,2.676403180E1
7.115846625E0,8.913963318E-1,-1.694970291E1,-7.882009277E0,1.871398104E1
7.125912625E0,6.529421997E-1,-1.110630432E1,-4.270319824E0,1.191687713E1
7.135978625E0,-1.631607056E-2,-7.313790894E0,-2.071542206E0,7.601518964E0
7.146044625E0,-7.911048889E-1,-4.863985291E0,-1.198258209E0,5.071491160E0
7.156110625E0,-6.569837952E-1,-4.202810211E0,-7.158114624E-1,4.313655924E0
7.166175625E0,6.021977234E-1,-5.528603210E0,-3.528163147E-1,5.572483729E0
7.176241625E0,2.392325134E0,-8.549770660E0,-1.128652954E-1,8.878881487E0
7.186307625E0,4.907245331E0,-1.273476791E1,1.450483704E-1,1.364831160E1
7.196373625E0,8.099656677E0,-1.671139847E1,2.035018158E0,1.868198533E1
7.206439625E0,9.210346985E0,-1.808928314E1,3.020568695E0,2.052258491E1
7.216505625E0,7.415728912E0,-1.541539352E1,4.183650055E0,1.761051733E1
7.226571625E0,5.337151337E0,-1.042941193E1,4.447102203E0,1.253134213E1
7.236637625E0,4.286486206E0,-6.618037720E0,4.098028107E0,8.886294032E0
7.246703625E0,4.354893951E0,-5.176086273E0,3.870501251E0,7.793442780E0
7.256768625E0,4.633165283E0,-5.347629547E0,3.394491119E0,7.847670500E0
7.266834625E0,4.499044189E0,-5.922583923E0,2.707719269E0,7.915184305E0
7.276900625E0,4.026626587E0,-6.177503815E0,2.149080963E0,7.680743716E0
7.286966625E0,3.601211243E0,-6.368506622E0,1.958976288E0,7.573914913E0
7.297032625E0,3.487148438E0,-6.723867645E0,2.035766602E0,7.843146434E0
7.307098625E0,3.416944427E0,-7.377707977E0,2.371817780E0,8.469451210E0
7.317164625E0,3.184777222E0,-8.382268982E0,2.641856232E0,9.347975374E0
7.327230625E0,2.863545227E0,-1.011521530E1,3.284619598E0,1.101390929E1
7.337295625E0,1.939516754E0,-1.192764633E1,3.909869385E0,1.270108463E1
7.347361625E0,4.544549561E-1,-1.372361160E1,4.446503448E0,1.443313679E1
7.357427625E0,-9.243278503E-1,-1.465991455E1,4.887636108E0,1.548084182E1
7.367493625E0,-2.183659058E0,-1.444496155E1,4.895120544E0,1.540738414E1
7.377559625E0,-2.978206787E0,-1.344788498E1,4.291126556E0,1.442667991E1
7.387625625E0,-3.068169708E0,-1.206446182E1,3.087928619E0,1.282576343E1
7.397691625E0,-2.818039856E0,-1.057925034E1,1.915416870E0,1.111443692E1
7.407757625E0,-2.245929565E0,-9.315129089E0,6.744973755E-1,9.605767865E0
7.417823625E0,-1.374741211E0,-8.396639099E0,-6.195616150E-1,8.530962323E0
7.427888625E0,-1.036893768E0,-7.889942780E0,-1.770817566E0,8.152431576E0
7.437954625E0,-5.063969421E-1,-7.812104645E0,-2.600841522E0,8.249229871E0
7.448020625E0,-9.849517822E-2,-8.061036987E0,-3.059338074E0,8.622619559E0
7.458086625E0,-2.305206299E-1,-8.113128662E0,-3.071462860E0,8.678126558E0
7.468152625E0,-2.829116821E-2,-7.896978149E0,-3.075205078E0,8.474665218E0
7.478218625E0,1.952689362E0,-7.410639496E0,-4.621489563E0,8.949231211E0
7.488284625E0,4.007616119E0,-7.414681091E0,-6.085445251E0,1.039572636E1
7.498350625E0,4.426145782E0,-8.338410187E0,-5.230423279E0,1.079245934E1
7.508416625E0,2.853815460E0,-9.388027496E0,-2.928809509E0,1.023998282E1
7.518481625E0,1.762734375E0,-9.965526581E0,-8.473878479E-1,1.015563975E1
7.528547625E0,5.381309509E-1,-1.021011795E1,5.712121582E-1,1.024023324E1
7.538613625E0,-3.293151855E-2,-1.047806076E1,1.031504974E0,1.052876271E1
7.548679625E0,1.294807434E-1,-1.049587372E1,1.000070343E0,1.054420557E1
7.558745625E0,4.137396240E-1,-1.039483383E1,9.154962158E-1,1.044326980E1
7.568812125E0,3.632945251E-1,-1.038600220E1,9.354048157E-1,1.043436662E1
7.578878125E0,2.893482971E-1,-1.050305878E1,1.080153809E0,1.056241915E1
7.588944125E0,1.598675537E-1,-1.067999084E1,1.252295837E0,1.075434828E1
7.599010125E0,2.275268555E-1,-1.108459946E1,1.342707825E0,1.116794421E1
7.609075125E0,7.429051208E-1,-1.146016846E1,1.196162567E0,1.154634895E1
7.619141125E0,1.535506897E0,-1.153815628E1,-8.247848511E-2,1.164017330E1
7.629207125E0,2.841990051E0,-1.113220047E1,-3.183579712E0,1.192216317E1
7.639273125E0,2.110910339E0,-1.103355560E1,-6.239924011E0,1.285036744E1
7.649339125E0,-4.311035156E-2,-1.191597061E1,-6.862180023E0,1.375069921E1
7.659405125E0,-1.532064056E0,-1.260334122E1,-5.372178497E0,1.378592514E1
7.669471125E0,-2.552042999E0,-1.336944809E1,-3.091521149E0,1.395752731E1
7.679537125E0,-3.111429749E0,-1.423105637E1,-1.252295837E0,1.462095090E1
7.689603125E0,-3.351231079E0,-1.482666779E1,-7.500901794E-1,1.521918075E1
7.699668125E0,-3.372935944E0,-1.501108429E1,-1.347946930E0,1.544429698E1
7.709734125E0,-3.296295319E0,-1.492621078E1,-2.399510193E0,1.547304044E1
7.719800125E0,-3.082390137E0,-1.497441055E1,-3.705544281E0,1.573102536E1
7.729866125E0,-2.639910278E0,-1.524205399E1,-4.616250458E0,1.614308224E1
7.739932125E0,-2.199226685E0,-1.537827072E1,-4.572541351E0,1.619370071E1
7.749998125E0,-1.467099152E0,-1.487531662E1,-4.593497772E0,1.563737978E1
7.760064125E0,-1.330732727E-1,-1.390189087E1,-5.547463989E0,1.496845466E1
7.770130125E0,1.817819824E0,-1.284179535E1,-6.503376160E0,1.450896544E1
7.780195125E0,3.713028717E0,-1.219394257E1,-5.088368683E0,1.372480650E1
7.790261125E0,4.962330780E0,-1.193333450E1,-1.596579895E0,1.302222203E1
7.800327125E0,5.216651917E0,-1.202314774E1,1.470242615E0,1.318829602E1
7.810393125E0,5.321284332E0,-1.272578659E1,3.251089325E0,1.417149580E1
7.820459125E0,6.032156067E0,-1.372735382E1,4.264332275E0,1.558883188E1
7.830525125E0,7.257807312E0,-1.440035431E1,4.953349457E0,1.686954777E1
7.840591125E0,8.281528473E0,-1.422476944E1,5.469925232E0,1.734496646E1
7.850657125E0,8.577463074E0,-1.340731934E1,5.764662323E0,1.692809547E1
7.860722125E0,7.968379669E0,-1.225756027E1,5.306614838E0,1.555323180E1
7.870788125E0,6.672075348E0,-1.114342712E1,4.557422791E0,1.376454358E1
7.880854125E0,4.321812744E0,-1.005504044E1,4.094585266E0,1.168535545E1
7.890920125E0,1.932780762E0,-9.031768341E0,2.606080627E0,9.596881633E0
7.900986125E0,1.429527283E0,-8.726253662E0,2.110610962E-1,8.845088921E0
7.911052125E0,1.717977448E0,-8.882079620E0,-1.792971497E0,9.222664023E0
7.921118125E0,1.218466187E0,-9.238039398E0,-2.928210754E0,9.767315393E0
7.931184125E0,-1.212478638E-2,-9.919871521E0,-3.600612488E0,1.055312315E1
7.941250125E0,-1.438957672E0,-1.027343628E1,-3.426823883E0,1.092507273E1
7.951316125E0,-2.620001678E0,-1.009605515E1,-2.184557190E0,1.065678321E1
7.961381125E0,-2.983445892E0,-9.674831085E0,-2.772235107E-1,1.012818635E1
7.971447125E0,-2.532284088E0,-9.183552704E0,1.360371094E0,9.622926399E0
7.981513125E0,-1.433119812E0,-8.308771820E0,2.292333069E0,8.737523245E0
7.991579125E0,-2.736309814E-1,-7.093898163E0,2.646496582E0,7.576424567E0
8.001645125E0,7.786807251E-1,-5.956563263E0,2.965632935E0,6.699400591E0
8.011711125E0,2.061213684E0,-4.922663269E0,3.068169708E0,6.155881811E0
8.021777125E0,2.553539886E0,-3.999981995E0,3.375330963E0,5.823511056E0
8.031843125E0,2.878514099E0,-3.336262207E0,3.829636230E0,5.838030712E0
8.041908125E0,3.266656952E0,-2.828069000E0,4.155807953E0,5.994978036E0
8.051974125E0,3.495381317E0,-2.282004547E0,4.154460754E0,5.889378530E0
8.062040125E0,3.583398285E0,-1.743873596E0,3.997886353E0,5.644903336E0
8.072106125E0,3.487896881E0,-1.233584747E0,3.619173889E0,5.175478299E0
8.082172125E0,3.162323914E0,-8.002359009E-1,3.211721191E0,4.577753056E0
8.092238125E0,2.840642853E0,-7.366181946E-1,2.848127289E0,4.089460507E0
8.102304125E0,2.523602142E0,-1.118025055E0,2.541564789E0,3.752079340E0
8.112370125E0,2.217788086E0,-1.654808807E0,2.248773651E0,3.565663910E0
8.122436125E0,2.094893646E0,-2.345023499E0,1.350192261E0,3.422094934E0
8.132501125E0,2.484084320E0,-3.327131195E0,-6.056405640E-1,4.196102643E0
8.142567125E0,3.544030151E0,-4.921615448E0,-4.285438385E0,7.426131596E0
8.152633125E0,5.753735046E0,-7.771988068E0,-1.259690460E1,1.588053120E1
8.162699125E0,7.304959259E0,-1.420007080E1,-2.573104202E1,3.028350977E1
8.172765125E0,7.167694702E0,-2.254851013E1,-2.741324387E1,3.621183640E1
8.182831125E0,4.939278717E0,-2.690475128E1,-1.943633194E1,3.355641690E1
8.192897125E0,1.666634216E0,-2.588477234E1,-1.353006409E1,2.925511482E1
8.202963125E0,1.441801758E0,-2.124996048E1,-1.053045181E1,2.375984066E1
8.213029125E0,2.246827698E0,-1.455258774E1,-7.261399841E0,1.641809892E1
8.223094125E0,1.742077332E0,-9.414971466E0,-4.339176636E0,1.051213466E1
8.233160125E0,9.336085510E-1,-6.444249115E0,-2.178270264E0,6.866209502E0
8.243226125E0,6.340814209E-1,-4.918471985E0,-7.288343811E-1,5.012447054E0
8.253292125E0,8.768765259E-1,-5.299130402E0,-2.881507874E-1,5.378914977E0
8.263358125E0,1.875449982E0,-7.208859100E0,-1.859133911E-1,7.451142594E0
8.273424125E0,3.787723389E0,-1.034872971E1,-4.833448792E-1,1.103071517E1
8.283490125E0,7.328011322E0,-1.454749832E1,-3.882925415E-1,1.629356402E1
8.293556125E0,1.184277283E1,-1.801713318E1,4.998106384E-1,2.156659841E1
8.303621125E0,1.273372009E1,-1.901525757E1,1.829495544E0,2.295810754E1
8.313687125E0,9.013356628E0,-1.502710098E1,3.420986023E0,1.785378131E1
8.323753125E0,5.457650757E0,-8.475375366E0,4.407584381E0,1.100203342E1
8.333819125E0,4.198618927E0,-4.649481354E0,4.698429565E0,7.830792944E0
8.343885125E0,4.122427368E0,-3.141367493E0,4.365821228E0,6.776650509E0
8.353951125E0,4.049828339E0,-3.197500763E0,3.745511169E0,6.376046943E0
8.364017125E0,3.768114166E0,-3.918850708E0,3.088527374E0,6.252605584E0
8.374083125E0,3.489244080E0,-4.725972290E0,2.867287445E0,6.536893423E0
8.384149125E0,3.602408752E0,-5.481750641E0,2.970872040E0,7.200904081E0
8.394214125E0,3.874842224E0,-6.504723358E0,3.080893250E0,8.174211365E0
8.404280125E0,4.171974335E0,-7.905660095E0,3.047961731E0,9.444305274E0
8.414346125E0,4.383334808E0,-9.567055206E0,3.326532440E0,1.103666559E1
8.424412125E0,4.083208923E0,-1.145238464E1,3.935765533E0,1.277966977E1
8.434478125E0,2.868484955E0,-1.354009323E1,4.386178894E0,1.451898398E1
8.444544125E0,1.359173584E0,-1.502051468E1,4.708907776E0,1.579990590E1
8.454610125E0,-3.532653809E-2,-1.535866150E1,4.869673462E0,1.611221433E1
8.464676125E0,-1.292262726E0,-1.459599747E1,4.771477661E0,1.541038884E1
8.474742125E0,-1.983525238E0,-1.308219543E1,3.957320709E0,1.381081449E1
8.484807125E0,-1.900897064E0,-1.123204285E1,2.759511566E0,1.172122435E1
8.494873125E0,-1.517544250E0,-9.628128204E0,1.769919434E0,9.906382189E0
8.504939125E0,-1.217418365E0,-8.481662292E0,9.514215088E-1,8.621247335E0
8.515005125E0,-5.185217285E-1,-7.594307556E0,-2.805166626E-1,7.617155745E0
8.525071125E0,1.676513672E-1,-7.153773651E0,-1.453477478E0,7.301861489E0
8.535137125E0,6.951544189E-1,-7.400460663E0,-2.745740204E0,7.923960308E0
8.545203125E0,8.747808838E-1,-8.076305237E0,-3.184627533E0,8.725468492E0
8.555269125E0,6.221063232E-1,-8.542286224E0,-3.212619324E0,9.147600403E0
8.565334125E0,7.637118530E-1,-8.404722290E0,-3.164120178E0,9.013005551E0
8.575399917E0,1.762884064E0,-7.818840637E0,-3.798051910E0,8.869454743E0
8.585465917E0,3.283721466E0,-7.317383423E0,-4.716242523E0,9.304293115E0
8.595531917E0,4.605472870E0,-7.538773041E0,-5.489534454E0,1.040088784E1
8.605597917E0,4.614603882E0,-8.341853027E0,-4.449048157E0,1.052022388E1
8.615663917E0,4.018693085E0,-9.291178894E0,-2.164498901E0,1.035185756E1
8.625729917E0,2.619253235E0,-1.012569351E1,-5.019062805E-1,1.047101077E1
8.635795917E0,1.875749359E0,-1.064705933E1,4.331991577E-1,1.081970284E1
8.645861917E0,1.670526123E0,-1.093146790E1,9.529183960E-1,1.109935590E1
8.655926917E0,1.791923676E0,-1.088057373E1,1.053509216E0,1.107735333E1
8.665992917E0,1.939367065E0,-1.082848206E1,1.183439026E0,1.106425308E1
8.676058917E0,1.974843292E0,-1.089389603E1,1.380130005E0,1.115713832E1
8.686124917E0,2.013163605E0,-1.103056183E1,1.503473511E0,1.131311427E1
8.696190917E0,2.120939484E0,-1.134924911E1,1.201401672E0,1.160806641E1
8.706256917E0,2.432292023E0,-1.158620636E1,6.400689697E-1,1.185604954E1
8.716322917E0,3.241359558E0,-1.136017639E1,-7.470964050E-1,1.183715221E1
8.726388917E0,3.396137695E0,-1.095571747E1,-2.797083435E0,1.180614976E1
8.736453917E0,2.337239685E0,-1.095691498E1,-4.732259216E0,1.216186468E1
8.746519917E0,8.298742676E-1,-1.177271851E1,-5.381309509E0,1.297089374E1
8.756585917E0,-3.514691162E-1,-1.251981491E1,-4.919220428E0,1.345615196E1
8.766651917E0,-1.265169067E0,-1.332843338E1,-3.590433655E0,1.386142139E1
8.776717917E0,-1.693428497E0,-1.423150543E1,-2.218536530E0,1.450259809E1
8.786783917E0,-2.015109558E0,-1.507664795E1,-1.047072601E0,1.524671574E1
8.796849917E0,-2.165696411E0,-1.558394302E1,-5.411247253E-1,1.574300915E1
8.806915917E0,-1.896406403E0,-1.570998093E1,-1.146016846E0,1.586547234E1
8.816980917E0,-1.539997559E0,-1.556029221E1,-2.395169220E0,1.581869532E1
8.827046917E0,-1.067579956E0,-1.529489410E1,-3.769461365E0,1.578867796E1
8.837112917E0,-6.053411865E-1,-1.512335083E1,-4.360582123E0,1.575109059E1
8.847178917E0,-9.819580078E-2,-1.474104584E1,-4.337230682E0,1.536618511E1
8.857244917E0,1.013692017E0,-1.408136765E1,-5.003345490E0,1.497818255E1
8.867310917E0,2.799029388E0,-1.327110260E1,-6.133645020E0,1.488550741E1
8.877376917E0,4.659360809E0,-1.243089981E1,-5.292095032E0,1.429136743E1
8.887442917E0,5.908513184E0,-1.175640244E1,-1.823657684E0,1.328342025E1
8.897508917E0,6.309678955E0,-1.144789398E1,1.776206360E0,1.319171081E1
8.907573917E0,6.442003784E0,-1.180071030E1,3.819307709E0,1.397652631E1
8.917639917E0,7.412435760E0,-1.262878830E1,4.662204895E0,1.536771461E1
8.927705917E0,8.652606812E0,-1.318533096E1,5.194348297E0,1.660427088E1
8.937771917E0,9.831854553E0,-1.302546341E1,5.553451538E0,1.723858709E1
8.947837917E0,1.034902908E1,-1.229288681E1,5.886359253E0,1.711334843E1
8.957903917E0,9.545949097E0,-1.136047577E1,5.456902313E0,1.581022886E1
8.967969917E0,8.028105469E0,-9.989177399E0,4.331392822E0,1.352756838E1
8.978035917E0,5.894891510E0,-8.616082764E0,3.855233002E0,1.112876676E1
8.988101917E0,4.241729279E0,-7.921976166E0,3.144211578E0,9.520296219E0
8.998166917E0,3.280877380E0,-8.031398621E0,5.881269836E-1,8.695597365E0
9.008232917E0,2.443368988E0,-8.714428253E0,-1.461710358E0,9.167764665E0
9.018298917E0,1.105002136E0,-9.261839905E0,-2.019001465E0,9.543535773E0
9.028364917E0,-5.119354248E-1,-9.903854828E0,-2.560724945E0,1.024234986E1
9.038430917E0,-2.646496582E0,-1.061068497E1,-2.399809570E0,1.119596649E1
9.048496917E0,-3.866309967E0,-1.062999481E1,-1.933529205E0,1.147535087E1
9.058562917E0,-4.075425110E0,-1.026176056E1,-8.756790161E-1,1.107608384E1
9.068628917E0,-3.333867188E0,-9.746681671E0,4.754113770E-1,1.031205557E1
9.078693917E0,-1.775308228E0,-8.856931915E0,1.536704407E0,9.162882881E0
9.088759917E0,-6.659651184E-1,-7.689958649E0,2.096989288E0,7.998520965E0
9.098825917E0,4.909790039E-2,-6.577023010E0,2.334245911E0,6.979136498E0
9.108891917E0,9.448352051E-1,-5.613626404E0,2.740351410E0,6.317835137E0
9.118957917E0,1.812281342E0,-4.818629608E0,3.253334656E0,6.089970554E0
9.129023917E0,2.507136383E0,-4.177363129E0,3.793261871E0,6.174538944E0
9.139089917E0,3.044219513E0,-3.592080231E0,4.177812195E0,6.294793687E0
9.149155917E0,3.541635132E0,-2.959196320E0,4.371060333E0,6.356586403E0
9.159221917E0,3.863465881E0,-2.314487000E0,4.427043915E0,6.315214684E0
9.169286917E0,3.837270355E0,-1.676962738E0,4.290078735E0,5.995133306E0
9.179352917E0,3.612288208E0,-1.170266418E0,3.971391449E0,5.494551813E0
9.189418917E0,3.150947571E0,-9.990225220E-1,3.571123810E0,4.866152675E0
9.199484917E0,2.581082611E0,-1.161434784E0,3.193758545E0,4.267436215E0
9.209550917E0,2.311343536E0,-1.417252808E0,2.591261444E0,3.750406689E0
9.219616917E0,2.475851440E0,-1.740131378E0,1.695823517E0,3.468964538E0
9.229682917E0,3.022963715E0,-2.307451630E0,8.187973022E-2,3.803859479E0
9.239748917E0,3.938908997E0,-3.160976715E0,-2.499651947E0,5.635160844E0
9.249814917E0,5.630391541E0,-4.828958130E0,-6.952442322E0,1.016644479E1
9.259879917E0,8.261919250E0,-8.145311737E0,-1.633642822E1,2.003707314E1
9.269945917E0,9.436676331E0,-1.488549545E1,-2.565889206E1,3.112888653E1
9.280011917E0,8.240962830E0,-2.282273987E1,-2.377760422E1,3.397300967E1
9.290077917E0,4.420307922E0,-2.713422409E1,-1.692620178E1,3.228469523E1
9.300143917E0,1.484612732E0,-2.614762573E1,-1.168754562E1,2.867928048E1
9.310209917E0,1.527573395E0,-2.082604202E1,-8.843310242E0,2.267733765E1
9.320275917E0,1.818867645E0,-1.431832489E1,-5.799090729E0,1.555481149E1
9.330341917E0,1.101858673E0,-9.930050354E0,-2.911595306E0,1.040660270E1
9.340406917E0,1.261875916E0,-8.330326996E0,-1.482367401E0,8.554770119E0
9.350472917E0,2.164648590E0,-9.189689941E0,-1.166224823E0,9.512948285E0
9.360538917E0,2.995870056E0,-1.101948486E1,-1.621577911E0,1.153402787E1
9.370604917E0,4.948409729E0,-1.320015015E1,-2.202370148E0,1.426818689E1
9.380670917E0,7.983348541E0,-1.531585052E1,-2.298021240E0,1.742383519E1
9.390736917E0,1.073986633E1,-1.622745483E1,-4.543052673E-1,1.946487638E1
9.400802917E0,8.922196198E0,-1.351284988E1,1.855840759E0,1.629867608E1
9.410868917E0,5.781876526E0,-8.385412445E0,3.607049103E0,1.080537095E1
9.420934917E0,4.237537994E0,-5.187612305E0,4.405039673E0,8.017008432E0
9.430999917E0,3.593277740E0,-3.474125519E0,4.596641235E0,6.790456810E0
9.441065917E0,3.665128326E0,-2.726729736E0,4.694238281E0,6.550121659E0
9.451131917E0,3.801345062E0,-2.933898926E0,4.513863373E0,6.590367952E0
9.461197917E0,4.029171295E0,-3.962410126E0,3.972439270E0,6.907618192E0
9.471263917E0,4.303550720E0,-5.043462067E0,3.529210968E0,7.510818096E0
9.481329917E0,4.731959839E0,-5.929020538E0,3.237317963E0,8.247724295E0
9.491395917E0,5.242847443E0,-6.973249054E0,3.259022827E0,9.313156364E0
9.501461917E0,5.367388458E0,-7.983498230E0,3.574267273E0,1.026257713E1
9.511527917E0,5.090015259E0,-9.037456512E0,4.009412384E0,1.112021867E1
9.521592917E0,4.654720459E0,-1.024170227E1,4.492607574E0,1.211372819E1
9.531658917E0,3.802841949E0,-1.185160446E1,4.467010803E0,1.322408109E1
9.541724917E0,2.689906311E0,-1.342423416E1,4.355492706E0,1.436718398E1
9.551790917E0,1.582658844E0,-1.383767441E1,4.207749939E0,1.454961173E1
9.561856917E0,4.531077576E-1,-1.348231339E1,3.918401642E0,1.404748918E1
9.571923042E0,-4.234693909E-1,-1.255424332E1,3.594475250E0,1.306555027E1
9.581989042E0,-7.726931763E-1,-1.127769791E1,2.955005035E0,1.168398817E1
9.592055042E0,-8.987310791E-1,-1.015877472E1,2.506837006E0,1.050203090E1
9.602120042E0,-4.337979126E-1,-9.018296356E0,1.270258484E0,9.117642591E0
9.612186042E0,-9.370513916E-2,-8.435109100E0,2.526745605E-1,8.439412931E0
9.622252042E0,4.502636719E-1,-8.513396301E0,-8.671467590E-1,8.569282202E0
9.632318042E0,9.490264893E-1,-8.929980011E0,-2.249372406E0,9.257692504E0
9.642384042E0,1.462458801E0,-9.413324890E0,-3.651356964E0,1.020205268E1
9.652450042E0,1.753902740E0,-9.508227539E0,-4.395758972E0,1.062098219E1
9.662516042E0,1.837728424E0,-8.899742889E0,-4.562212830E0,1.016840475E1
9.672582042E0,2.096240845E0,-7.835007019E0,-4.249812469E0,9.156553210E0
9.682648042E0,2.747686157E0,-7.153623962E0,-3.502566376E0,8.425680164E0
9.692713042E0,3.171454926E0,-7.184310150E0,-2.958148499E0,8.391846115E0
9.702779042E0,2.992127838E0,-7.428003387E0,-1.682800598E0,8.182901758E0
9.712845042E0,2.893932037E0,-8.002808075E0,-3.131488037E-1,8.515740831E0
9.722911042E0,2.376458130E0,-8.790919189E0,3.115022278E-1,9.111797138E0
9.732977042E0,2.144440613E0,-9.525890808E0,6.297404480E-1,9.784569191E0
9.743043042E0,2.096989288E0,-1.015817596E1,9.262738037E-1,1.041363943E1
9.753109042E0,2.218985596E0,-1.049482590E1,1.055155792E0,1.077861872E1
9.763175042E0,2.180814972E0,-1.075423645E1,1.145268402E0,1.103273290E1
9.773240042E0,2.225721588E0,-1.101215012E1,1.437011719E0,1.132635376E1
9.783306042E0,2.546055450E0,-1.110660370E1,1.468296661E0,1.148890505E1
9.793372042E0,3.437002716E0,-1.139610168E1,5.995033264E-1,1.191820144E1
9.803438042E0,4.792434082E0,-1.141481277E1,-1.402882690E0,1.245927185E1
9.813504042E0,5.317691803E0,-1.131362320E1,-4.321064301E0,1.322677257E1
9.823570042E0,4.107608185E0,-1.133487900E1,-6.260880432E0,1.358493838E1
9.833636042E0,1.951940918E0,-1.202599182E1,-6.443500671E0,1.378235298E1
9.843702042E0,1.086740112E-1,-1.277683044E1,-5.040917358E0,1.373572183E1
9.853768042E0,-7.219487000E-1,-1.350072510E1,-3.278632050E0,1.391187321E1
9.863833042E0,-1.145717468E0,-1.445394287E1,-1.941762085E0,1.462872424E1
9.873899042E0,-1.467398529E0,-1.530971329E1,-1.019380188E0,1.541362110E1
9.883965042E0,-1.452729034E0,-1.571866287E1,-1.018931122E0,1.581850198E1
9.894031042E0,-1.218466187E0,-1.557990143E1,-1.976938934E0,1.575202450E1
9.904097042E0,-9.264234924E-1,-1.527648239E1,-3.251688080E0,1.564617046E1
9.914163042E0,-4.510121155E-1,-1.512245270E1,-4.218078461E0,1.570618265E1
9.924229042E0,1.434017944E-1,-1.515658173E1,-4.351900177E0,1.576964073E1
9.934295042E0,8.349636841E-1,-1.495240631E1,-4.701573029E0,1.569638200E1
9.944360042E0,2.280507660E0,-1.439122330E1,-6.423891449E0,1.592401974E1
9.954426042E0,4.404141541E0,-1.358095825E1,-6.888824615E0,1.585228041E1
9.964492042E0,5.846841431E0,-1.262324982E1,-3.926035767E0,1.445495581E1
9.974558042E0,6.149212646E0,-1.173260193E1,3.848497009E-1,1.325197621E1
9.984624042E0,6.083199921E0,-1.161000687E1,3.337160339E0,1.352531774E1
9.994690042E0,6.914870453E0,-1.237267090E1,4.626728668E0,1.490989727E1
1.000475604E1,8.622070312E0,-1.339908646E1,5.256768494E0,1.677823678E1
1.001482204E1,1.052102142E1,-1.393137955E1,5.889203339E0,1.842438449E1
1.002488804E1,1.169967041E1,-1.339399704E1,6.526428223E0,1.894401514E1
1.003495304E1,1.173948761E1,-1.265318756E1,6.672674103E0,1.850522371E1
1.004501904E1,1.064047302E1,-1.113564331E1,5.444478149E0,1.633598973E1
1.005508504E1,8.569230194E0,-9.476643219E0,4.124822388E0,1.342581962E1
1.006515104E1,6.419700165E0,-8.528365173E0,3.299139404E0,1.117272946E1
1.007521704E1,4.485272827E0,-8.261170807E0,1.899549866E0,9.590250525E0
1.008528304E1,3.045566711E0,-8.771609344E0,-9.250762939E-2,9.285750629E0
1.009534904E1,1.523082733E0,-9.529183960E0,-1.037941589E0,9.705794697E0
1.010541504E1,1.694476318E-1,-1.031220566E1,-1.384920044E0,1.040616652E1
1.011548004E1,-1.836979980E0,-1.116947296E1,-2.516267395E0,1.159582784E1
1.012554604E1,-3.811823273E0,-1.129027176E1,-3.887266388E0,1.253439560E1
1.013561204E1,-4.298012238E0,-1.069825287E1,-2.967728577E0,1.190516428E1
1.014567804E1,-3.509302368E0,-9.766889648E0,-7.469467163E-2,1.037848331E1
1.015574404E1,-1.970951385E0,-8.760233002E0,1.729054413E0,9.144176331E0
1.016581004E1,-7.249424744E-1,-7.660320282E0,2.280956726E0,8.025510077E0
1.017587604E1,1.197509766E-1,-6.648125153E0,2.578837280E0,7.131781689E0
1.018594204E1,1.073118439E0,-5.522016907E0,2.921025696E0,6.338504951E0
1.019600804E1,2.061812439E0,-4.473597107E0,3.398832092E0,5.984663834E0
1.020607304E1,2.827919312E0,-3.638334045E0,3.918102264E0,6.048646759E0
1.021613904E1,3.321742401E0,-2.868484955E0,4.241579590E0,6.103537985E0
1.022620504E1,3.752247162E0,-2.191442871E0,4.438869324E0,6.211710030E0
1.023627104E1,4.001329193E0,-1.542691956E0,4.472100220E0,6.195983712E0
1.024633704E1,3.970942383E0,-9.084608459E-1,4.293072510E0,5.918120993E0
1.025640304E1,3.736529846E0,-4.499642944E-1,3.995191956E0,5.488686721E0
1.026646904E1,3.280128937E0,-5.069956970E-1,3.700155487E0,4.970658015E0
1.027653504E1,2.590662689E0,-9.630972290E-1,3.312312012E0,4.313988909E0
1.028660104E1,1.948947144E0,-1.454974365E0,2.875520325E0,3.766160181E0
1.029666604E1,1.699865112E0,-2.010469208E0,2.279759216E0,3.482646970E0
1.030673204E1,1.762285309E0,-2.644700317E0,1.105600891E0,3.364883744E0
1.031679804E1,2.457439728E0,-3.551813965E0,-1.217568054E0,4.487411773E0
1.032686404E1,4.010609894E0,-5.189857635E0,-5.841452637E0,8.783062274E0
1.033693004E1,6.632108459E0,-8.654403076E0,-1.627924713E1,1.959330096E1
1.034699604E1,8.456813965E0,-1.602911728E1,-2.683574478E1,3.238220964E1
1.035706204E1,7.970774689E0,-2.338931168E1,-2.520024582E1,3.529370396E1
1.036712804E1,4.901108093E0,-2.606260254E1,-1.731943405E1,3.167400997E1
1.037719304E1,2.136956177E0,-2.441872101E1,-1.304986267E1,2.776939742E1
1.038725904E1,1.477427673E0,-1.970352631E1,-9.755962372E0,2.203611906E1
1.039732504E1,1.941163330E0,-1.356793533E1,-6.171216888E0,1.503133069E1
1.040739104E1,1.523531799E0,-9.045689392E0,-3.350033569E0,9.765673077E0
1.041745704E1,6.204597473E-1,-6.593788147E0,-1.595083008E0,6.812290527E0
1.042752304E1,5.376818848E-1,-6.101312256E0,-4.613406372E-1,6.142308054E0
1.043758904E1,1.314266968E0,-7.404352570E0,-4.587959290E-1,7.534071166E0
1.044765504E1,2.511926422E0,-9.628577271E0,-8.445437622E-1,9.986617484E0
1.045772104E1,4.764442291E0,-1.261486725E1,-1.231489105E0,1.354072935E1
1.046778604E1,9.003626862E0,-1.577120361E1,-1.625619507E0,1.823290429E1
1.047785204E1,1.330627945E1,-1.765817963E1,-1.396595764E0,2.215443207E1
1.048791804E1,1.213885712E1,-1.649869080E1,2.589614868E-2,2.048314724E1
1.049798404E1,7.829767914E0,-1.068702621E1,2.261646881E0,1.343997178E1
1.050805004E1,4.737198944E0,-5.775888977E0,3.919898529E0,8.436086284E0
1.051811604E1,3.753444672E0,-3.544778595E0,4.363875275E0,6.759971124E0
1.052818204E1,3.710484009E0,-2.628683624E0,4.414470062E0,6.337603262E0
1.053824804E1,3.865561523E0,-2.945275269E0,4.190984802E0,6.417286491E0
1.054831404E1,3.818110199E0,-3.858226776E0,3.680396576E0,6.558139851E0
1.055837904E1,3.830684052E0,-4.771477661E0,3.354673920E0,6.978178593E0
1.056844504E1,4.110601959E0,-5.622757416E0,3.378025360E0,7.741027371E0
1.057851100E1,4.802912292E0,-6.688092041E0,3.492387543E0,8.944009861E0
1.058857700E1,5.495222626E0,-8.079149323E0,3.594325562E0,1.041101828E1
1.059864300E1,5.705385590E0,-9.455836487E0,3.923341370E0,1.171993498E1
1.060870900E1,5.284909973E0,-1.065499283E1,4.340074768E0,1.266078175E1
1.061877500E1,4.197720795E0,-1.189576263E1,4.508474579E0,1.339613271E1
1.062884100E1,2.787952423E0,-1.321047867E1,4.457430725E0,1.421823175E1
1.063890600E1,1.615889740E0,-1.368154907E1,4.368964691E0,1.445281070E1
1.064897200E1,5.303471375E-1,-1.324700272E1,4.260739746E0,1.392545339E1
1.065903800E1,-1.353186035E-1,-1.227013412E1,3.629801788E0,1.279648247E1
1.066910400E1,-2.532733154E-1,-1.109702362E1,2.629581757E0,1.140713728E1
1.067917000E1,-9.999206543E-2,-1.004531067E1,1.644779663E0,1.017956605E1
1.068923600E1,1.945953369E-3,-9.185049591E0,1.083297272E0,9.248711951E0
1.069930200E1,-2.694396973E-2,-8.589737549E0,5.638774109E-1,8.608267821E0
1.070936800E1,5.983058167E-1,-8.299491119E0,-5.932164001E-1,8.342147708E0
1.071943300E1,7.493417358E-1,-8.386011200E0,-1.710642700E0,8.591448966E0
1.072949900E1,1.172811127E0,-8.763675842E0,-2.886148224E0,9.300932844E0
1.073956500E1,1.553020477E0,-9.208700409E0,-3.612437897E0,1.001307862E1
1.074963100E1,1.639390869E0,-9.210646362E0,-3.825894012E0,1.010747614E1
1.075969700E1,2.131866760E0,-8.643326111E0,-4.089944916E0,9.796917452E0
1.076976300E1,2.949316864E0,-7.924221497E0,-4.042343903E0,9.371888845E0
1.077982900E1,3.674259338E0,-7.872578888E0,-3.556753693E0,9.387660883E0
1.078989500E1,3.640579376E0,-8.084538116E0,-2.514770508E0,9.216162187E0
1.079996100E1,3.183879089E0,-8.427474976E0,-1.053359528E0,9.070225290E0
1.081002600E1,2.595602417E0,-8.829987946E0,-8.981323242E-3,9.203581895E0
1.082009200E1,2.201172638E0,-9.021439819E0,3.606001282E-1,9.293092588E0
1.083015800E1,2.166893921E0,-9.244775391E0,7.318281555E-1,9.523490628E0
1.084022400E1,2.392624512E0,-9.401050415E0,8.726852417E-1,9.739916863E0
1.085029000E1,2.635269928E0,-9.633966064E0,9.401948547E-1,1.003204446E1
1.086035600E1,2.522404633E0,-9.980196075E0,1.354383545E0,1.038273536E1
1.087042200E1,2.503693542E0,-1.028241760E1,1.757794647E0,1.072783460E1
1.088048800E1,2.934347992E0,-1.068792435E1,1.909878387E0,1.124676667E1
1.089055400E1,3.571872253E0,-1.113339798E1,1.255289612E0,1.175953120E1
1.090061900E1,4.344266052E0,-1.133921997E1,-1.194515991E-1,1.214350961E1
1.091068500E1,4.805756378E0,-1.122425903E1,-2.677931213E0,1.250002403E1
1.092075100E1,3.590733032E0,-1.122186401E1,-5.651797028E0,1.306776206E1
1.093081700E1,1.840422821E0,-1.174502609E1,-6.628665619E0,1.361146583E1
1.094088300E1,6.042933655E-1,-1.232267487E1,-5.675298157E0,1.358022443E1
1.095094900E1,3.607498169E-2,-1.311961761E1,-3.736529846E0,1.364138274E1
1.096101500E1,-1.366658020E-1,-1.404155045E1,-2.245480499E0,1.422061880E1
1.097108100E1,-2.782713318E-1,-1.491603195E1,-1.196761322E0,1.496655210E1
1.098114600E1,-2.594105530E-1,-1.538276138E1,-1.030756531E0,1.541943905E1
1.099121200E1,-3.502716064E-1,-1.525941788E1,-1.917662201E0,1.538343110E1
1.100127800E1,-6.279441833E-1,-1.490585312E1,-3.353775787E0,1.529138918E1
1.101134400E1,-6.210585022E-1,-1.500569550E1,-4.528383179E0,1.568639108E1
1.102141000E1,-2.374063110E-1,-1.538306076E1,-4.505331116E0,1.603099899E1
1.103147600E1,6.387217712E-1,-1.523307266E1,-4.647236023E0,1.593898588E1
1.104154200E1,1.868414612E0,-1.466560272E1,-6.179898834E0,1.602379562E1
1.105160800E1,3.807033234E0,-1.384979919E1,-7.212152252E0,1.607251007E1
1.106167300E1,5.442232819E0,-1.273372009E1,-5.066663818E0,1.474573185E1
1.107173900E1,6.232289886E0,-1.191237808E1,-6.373745728E-1,1.345928806E1
1.108180500E1,6.553821259E0,-1.165656006E1,2.943029938E0,1.369267654E1
1.109187100E1,7.273075562E0,-1.230052094E1,4.654421082E0,1.502877503E1
1.110193700E1,8.736582184E0,-1.342528198E1,5.219945068E0,1.684677688E1
1.111200300E1,1.042043060E1,-1.440215057E1,5.664969635E0,1.865741665E1
1.112206900E1,1.126078308E1,-1.405068146E1,6.396199036E0,1.910859092E1
1.113213500E1,1.102307739E1,-1.268881348E1,6.259084167E0,1.793572851E1
1.114220100E1,9.641300812E0,-1.055200699E1,5.122946777E0,1.518367928E1
1.115226600E1,7.225025482E0,-8.578211517E0,4.365821228E0,1.203524412E1
1.116233200E1,4.827161865E0,-8.017178192E0,4.234993286E0,1.027189398E1
1.117239800E1,3.134182434E0,-8.173453217E0,2.326611786E0,9.057679582E0
1.118246400E1,1.975292358E0,-8.756939850E0,-1.889071655E-1,8.978945448E0
1.119253000E1,6.150709534E-1,-9.750124512E0,-1.838476868E0,9.940987751E0
1.120259600E1,-9.395960999E-1,-1.070453979E1,-2.232307892E0,1.097511784E1
1.121266200E1,-2.965034180E0,-1.177466446E1,-2.967429199E0,1.249959147E1
1.122272800E1,-4.487518158E0,-1.206655746E1,-3.794309692E0,1.342149076E1
1.123279400E1,-4.341272278E0,-1.144954056E1,-2.174528046E0,1.243652669E1
1.124285900E1,-2.847827911E0,-1.042282562E1,2.155517578E-2,1.080490085E1
1.125292500E1,-1.027912445E0,-9.102720795E0,1.249601440E0,9.245411490E0
1.126299100E1,-2.079176331E-1,-7.790998535E0,1.863923950E0,8.013557288E0
1.127305700E1,4.680766296E-1,-6.543792114E0,2.372715912E0,6.976395327E0
1.128312300E1,1.407972107E0,-5.343138885E0,2.903811493E0,6.242086173E0
1.129318900E1,2.352507935E0,-4.142186279E0,3.419938202E0,5.864126368E0
1.130325500E1,3.039579163E0,-3.123853912E0,3.926484833E0,5.866411841E0
1.131332100E1,3.488495636E0,-2.276915131E0,4.194577332E0,5.911719150E0
1.132338600E1,3.877985687E0,-1.649869080E0,4.310586090E0,6.028432086E0
1.133345200E1,4.145629120E0,-1.284628601E0,4.339326324E0,6.137284774E0
1.134351800E1,4.154610443E0,-1.153501282E0,4.165837097E0,5.995460938E0
1.135358400E1,3.935615845E0,-1.379082184E0,3.775598602E0,5.625485273E0
1.136365000E1,3.513942719E0,-1.936073914E0,3.264710999E0,5.172476538E0
1.137371600E1,3.034938812E0,-2.282752991E0,2.685116272E0,4.650985294E0
1.138378200E1,2.783312073E0,-2.401755524E0,2.157762909E0,4.262768638E0
1.139384800E1,2.898572388E0,-2.593506775E0,1.658401337E0,4.228273202E0
1.140391400E1,3.154390411E0,-2.984793091E0,1.078058167E0,4.474525458E0
1.141397900E1,3.556454315E0,-3.710484009E0,-2.296224976E-1,5.144782344E0
1.142404500E1,4.576283569E0,-5.012027435E0,-2.985691223E0,7.414657268E0
1.143411100E1,6.389013977E0,-7.335645447E0,-8.504864044E0,1.292145139E1
1.144417700E1,8.279582520E0,-1.149624344E1,-1.775667480E1,2.271595475E1
1.145424300E1,7.510781250E0,-1.756911484E1,-2.322016342E1,3.007094313E1
1.146430900E1,4.459975433E0,-2.256243118E1,-2.235840546E1,3.207573813E1
1.147437500E1,1.712588654E0,-2.472977417E1,-1.782613037E1,3.053302498E1
1.148444100E1,1.180445251E0,-2.283860687E1,-1.268117935E1,2.614971749E1
1.149450600E1,4.079167328E0,-1.783645889E1,-9.429940338E0,2.058403864E1
1.150457200E1,4.617897034E0,-1.284808228E1,-6.026467896E0,1.492368944E1
1.151463800E1,3.381617889E0,-8.955726471E0,-2.965932312E0,1.002183270E1
1.152470400E1,1.799108734E0,-5.659281464E0,-6.230044556E-1,5.970962525E0
1.153477000E1,6.575825500E-1,-3.586990814E0,7.283853149E-1,3.718798607E0
1.154483600E1,6.777905273E-1,-3.561843109E0,9.999206543E-1,3.761112555E0
1.155490200E1,1.761536865E0,-5.283712463E0,5.093907166E-1,5.592862275E0
1.156496800E1,3.456462250E0,-7.810308380E0,5.942642212E-2,8.541169696E0
1.157503388E1,5.480702820E0,-1.123593475E1,2.442919922E-1,1.250375990E1
1.158509887E1,8.479117584E0,-1.528276932E1,9.328601074E-1,1.750224846E1
1.159516487E1,1.255603958E1,-1.803749084E1,6.201603699E-1,2.198612755E1
1.160523087E1,1.284808228E1,-1.786220535E1,1.415007477E0,2.204844313E1
1.161529687E1,1.009710297E1,-1.422686508E1,2.267634430E0,1.759253661E1
1.162536287E1,6.644981689E0,-8.438851318E0,3.341950378E0,1.124893886E1
1.163542887E1,5.292244720E0,-4.851710815E0,3.672014008E0,8.064157668E0
1.164549487E1,5.273084564E0,-3.752845917E0,3.404669952E0,7.313073962E0
1.165556087E1,5.112468567E0,-3.979025574E0,2.799777832E0,7.057530395E0
1.166562588E1,4.517904968E0,-4.267775116E0,2.211650848E0,6.596724128E0
1.167569187E1,3.931274872E0,-4.583768005E0,1.886826324E0,6.326607687E0
1.168575787E1,3.689677277E0,-5.036426697E0,1.950593719E0,6.540957738E0
1.169582387E1,4.041146393E0,-5.845793610E0,2.215243378E0,7.443888118E0
1.170588987E1,4.494104462E0,-7.112010498E0,2.633623352E0,8.815534028E0
1.171595587E1,4.653223572E0,-8.741821289E0,3.135379944E0,1.038761457E1
1.172602187E1,4.334087219E0,-1.045231430E1,3.583248596E0,1.186907144E1
1.173608787E1,3.415896606E0,-1.237955658E1,3.820654907E0,1.339847658E1
1.174615387E1,2.054178314E0,-1.392239822E1,4.011358337E0,1.463365356E1
1.175621888E1,6.851252747E-1,-1.415740952E1,4.426744537E0,1.484916523E1
1.176628487E1,-4.953199768E-1,-1.342004288E1,4.577780457E0,1.418798670E1
1.177635087E1,-1.105151825E0,-1.205967178E1,3.953877869E0,1.273931687E1
1.178641687E1,-1.225950623E0,-1.057715469E1,3.032394104E0,1.107134004E1
1.179648287E1,-1.123264160E0,-9.298363953E0,2.344574432E0,9.654963689E0
1.180654887E1,-7.476951599E-1,-8.418493652E0,1.315763855E0,8.553438955E0
1.181661487E1,-1.564247131E-1,-8.041727142E0,1.727407837E-1,8.045103076E0
1.182668087E1,3.498225403E-1,-7.886200562E0,-1.939965820E-1,7.896339011E0
1.183674687E1,3.215313721E-1,-7.904761963E0,-7.613168335E-1,7.947845459E0
1.184681188E1,3.408412170E-1,-8.227490845E0,-1.797611847E0,8.428474755E0
1.185687787E1,4.879852295E-1,-8.704848175E0,-2.061812439E0,8.958994467E0
1.186694387E1,5.150788879E-1,-8.808881836E0,-2.020947418E0,9.052399346E0
1.187700987E1,6.198609924E-1,-8.597221985E0,-1.985022125E0,8.845154964E0
1.188707587E1,1.330433350E0,-8.557704163E0,-2.468516693E0,9.005438806E0
1.189714188E1,3.571273499E0,-8.545878754E0,-4.473447418E0,1.028580429E1
1.190720787E1,5.356012115E0,-8.669521637E0,-5.065466309E0,1.138008876E1
1.191727387E1,5.466033325E0,-9.336983643E0,-4.258344727E0,1.162713566E1
1.192733887E1,4.315825195E0,-9.853110352E0,-2.272723846E0,1.099433510E1
1.193740488E1,2.783461761E0,-1.016416351E1,-6.319857788E-1,1.055733325E1
1.194747087E1,1.936522980E0,-1.032927017E1,1.942959595E-1,1.051102728E1
1.195753687E1,1.628463593E0,-1.038166122E1,7.514373779E-1,1.053543742E1
1.196760287E1,1.511556702E0,-1.029124924E1,8.845106506E-1,1.043920369E1
1.197766887E1,1.564696198E0,-1.040621017E1,9.134005737E-1,1.056275461E1
1.198773488E1,1.738933868E0,-1.050934570E1,8.833131409E-1,1.068880163E1
1.199780087E1,2.485880585E0,-1.050081345E1,5.804928589E-1,1.080664875E1
1.200786687E1,3.568728790E0,-1.046878006E1,-2.751278687E-1,1.106376412E1
1.201793187E1,4.547094269E0,-1.063598236E1,-1.734592896E0,1.169653793E1
1.202799788E1,4.599635010E0,-1.078881454E1,-3.382815399E0,1.220649833E1
1.203806387E1,2.990481262E0,-1.142319534E1,-4.812043304E0,1.275100509E1
1.204812987E1,1.308429108E0,-1.218585938E1,-5.128634949E0,1.328570856E1
1.205819587E1,1.516346741E-1,-1.232282455E1,-3.876488800E0,1.291906202E1
1.206826187E1,-2.062710571E-1,-1.293954208E1,-2.013313293E0,1.309685945E1
1.207832788E1,-2.281256104E-1,-1.398466873E1,-3.975732422E-1,1.399217872E1
1.208839387E1,-2.959346008E-1,-1.482846405E1,5.487588501E-1,1.484156527E1
1.209845887E1,-3.980223083E-1,-1.513607437E1,2.586621094E-1,1.514351595E1
1.210852487E1,-6.300398254E-1,-1.499955826E1,-1.113384705E0,1.505401354E1
1.211859088E1,-8.075706482E-1,-1.471934097E1,-3.148402863E0,1.507393809E1
1.212865687E1,-6.836283875E-1,-1.496348328E1,-4.689448242E0,1.569599007E1
1.213872287E1,-3.502716064E-1,-1.534219574E1,-5.102738800E0,1.617230978E1
1.214878887E1,4.300556946E-1,-1.501737122E1,-6.019881592E0,1.618472615E1
1.215885487E1,1.987417145E0,-1.436353088E1,-7.575297089E0,1.635988913E1
1.216892088E1,3.965553589E0,-1.348860031E1,-7.470664673E0,1.592101706E1
1.217898687E1,5.288203125E0,-1.232881210E1,-4.373605042E0,1.411003619E1
1.218905187E1,5.754333801E0,-1.141166931E1,8.771759033E-2,1.278069827E1
1.219911787E1,5.793552246E0,-1.146944916E1,3.305875397E0,1.326809420E1
1.220918388E1,6.672225037E0,-1.244257553E1,4.620591431E0,1.485550867E1
1.221924987E1,8.825347595E0,-1.378872620E1,5.212161255E0,1.718087178E1
1.222931587E1,1.087698120E1,-1.449570602E1,5.983507233E0,1.908498289E1
1.223938187E1,1.224693237E1,-1.404005356E1,6.338269501E0,1.967953548E1
1.224944787E1,1.245649658E1,-1.279748749E1,6.636449432E0,1.905209842E1
1.225951388E1,1.117007172E1,-1.090407486E1,5.469476166E0,1.654039057E1
1.226957887E1,8.279432831E0,-9.053622894E0,4.302203522E0,1.300100191E1
1.227964487E1,5.658832397E0,-8.156239014E0,4.243675232E0,1.079608255E1
1.228971087E1,3.574566650E0,-8.038583679E0,2.270328827E0,9.085744179E0
1.229977688E1,2.437830505E0,-8.379873962E0,-6.057902527E-1,8.748273374E0
1.230984287E1,1.232087860E0,-9.171128540E0,-1.941612396E0,9.455025007E0
1.231990887E1,-7.399113464E-1,-1.026894562E1,-3.048560486E0,1.073743144E1
1.232997487E1,-2.831212463E0,-1.137110367E1,-3.436553650E0,1.221178380E1
1.234004087E1,-4.448449402E0,-1.177810730E1,-3.188519440E0,1.298765452E1
1.235010688E1,-4.741090851E0,-1.133428024E1,-1.409918060E0,1.236655651E1
1.236017187E1,-3.438050537E0,-1.058344162E1,6.997947693E-1,1.114984936E1
1.237023787E1,-1.309027863E0,-9.507928162E0,1.876198425E0,9.779282816E0
1.238030387E1,8.487350464E-2,-8.231682129E0,2.348017273E0,8.560431023E0
1.239036988E1,1.076411591E0,-6.866371307E0,2.664758606E0,7.443564688E0
1.240043587E1,2.199526062E0,-5.643414459E0,3.201093292E0,6.850769294E0
1.241050187E1,3.347788239E0,-4.482279053E0,3.765270081E0,6.743572523E0
1.242056787E1,4.136348419E0,-3.408412170E0,4.318818970E0,6.883229552E0
1.243063387E1,4.463717651E0,-2.361040192E0,4.675227814E0,6.881645237E0
1.244069887E1,4.632416840E0,-1.339414673E0,4.811294861E0,6.811892225E0
1.245076487E1,4.572691040E0,-3.412902832E-1,4.821922760E0,6.654090585E0
1.246083087E1,4.332889709E0,3.498225403E-1,4.687352600E0,6.392775879E0
1.247089687E1,4.066294098E0,1.103205872E-1,4.386029205E0,5.981987171E0
1.248096288E1,3.547173615E0,-8.631051636E-1,3.866609344E0,5.317711820E0
1.249102887E1,2.902913361E0,-1.447639618E0,3.300336914E0,4.627611715E0
1.250109487E1,2.610122223E0,-1.630559235E0,2.844834137E0,4.191007361E0
1.251116087E1,2.758164368E0,-1.918560333E0,2.423759766E0,4.142819792E0
1.252122687E1,2.951262817E0,-2.454296265E0,1.477876740E0,4.113106129E0
1.253129187E1,3.323538666E0,-3.448379059E0,-3.776646423E-1,4.804150079E0
1.254135787E1,4.631069641E0,-5.195695496E0,-4.213138733E0,8.135883215E0
1.255142387E1,7.523355103E0,-8.568631439E0,-1.462937805E1,1.854834275E1
1.256148987E1,1.035441788E1,-1.595172821E1,-2.990586044E1,3.544054304E1
1.257155588E1,8.857680359E0,-2.474668900E1,-2.860386795E1,3.884634319E1
1.258162187E1,4.538562012E0,-2.826901428E1,-1.792417648E1,3.377886641E1
1.259168787E1,2.857407990E0,-2.609059433E1,-1.149025589E1,2.865152480E1
1.260175387E1,3.868106232E0,-1.928814011E1,-9.355844421E0,2.178362732E1
1.261181887E1,3.232378235E0,-1.196012878E1,-6.765331421E0,1.411604260E1
1.262188487E1,1.731150055E0,-7.239096222E0,-4.033063202E0,8.465636031E0
1.263195087E1,4.376898193E-1,-4.630919952E0,-1.324894867E0,4.836562663E0
1.264201687E1,4.101470947E-2,-3.579057312E0,4.755610657E-1,3.610746706E0
1.265208287E1,7.937992859E-1,-4.724325714E0,1.032702484E0,4.900596411E0
1.266214887E1,2.135159912E0,-7.412435760E0,6.274951172E-1,7.739306292E0
1.267221487E1,4.102518768E0,-1.082264420E1,-6.870712280E-2,1.157432539E1
1.268228087E1,7.457641754E0,-1.458357330E1,-1.177750854E0,1.642206223E1
1.269234687E1,1.176777878E1,-1.709130844E1,-1.321152649E0,2.079276042E1
1.270241187E1,1.266456390E1,-1.766326904E1,3.272195435E-1,2.173681956E1
1.271247788E1,9.473499756E0,-1.481499207E1,1.971101074E0,1.769509613E1
1.272254387E1,6.057902527E0,-9.472302246E0,3.523522797E0,1.178294979E1
1.273260987E1,4.508324890E0,-5.473667450E0,4.226161652E0,8.255087581E0
1.274267587E1,4.144880676E0,-3.764970703E0,4.046086121E0,6.908390052E0
1.275274187E1,4.251009979E0,-3.374133453E0,3.751648407E0,6.597782065E0
1.276280787E1,4.390070801E0,-4.068389740E0,3.120560760E0,6.749993791E0
1.277287387E1,4.136797485E0,-4.948559418E0,2.609972534E0,6.957965965E0
1.278293987E1,3.878883820E0,-5.501808929E0,2.403402100E0,7.147865614E0
1.279300487E1,4.105213165E0,-6.044131165E0,2.699336700E0,7.789140857E0
1.280307088E1,4.723577271E0,-6.846462708E0,3.128494263E0,8.886715377E0
1.281313687E1,5.158722382E0,-8.046816559E0,3.351530457E0,1.012898957E1
1.282320287E1,5.166655884E0,-9.380243683E0,3.670217743E0,1.132050365E1
1.283326887E1,4.675976257E0,-1.082893112E1,4.048930206E0,1.247093978E1
1.284333487E1,3.525169373E0,-1.255439301E1,4.212090912E0,1.370333217E1
1.285340087E1,2.392774200E0,-1.340597214E1,4.082610168E0,1.421665091E1
1.286346687E1,1.304836578E0,-1.337603439E1,3.867208099E0,1.398485585E1
1.287353187E1,2.883004761E-1,-1.261561569E1,3.730542297E0,1.315879258E1
1.288359787E1,-3.432362366E-1,-1.144609772E1,3.334615631E0,1.192688666E1
1.289366388E1,-6.715036011E-1,-1.032268387E1,2.843786316E0,1.072827292E1
1.290372987E1,-6.412664795E-1,-9.413773956E0,2.151176605E0,9.677702392E0
1.291379587E1,-5.168751526E-1,-8.758736115E0,1.415157166E0,8.887366767E0
1.292386187E1,-6.825805664E-2,-8.390202484E0,5.182223511E-1,8.406468420E0
1.293392787E1,2.926414490E-1,-8.351283417E0,-1.838177490E-1,8.358430636E0
1.294399388E1,5.390290833E-1,-8.576864319E0,-1.102906494E0,8.664268961E0
1.295405987E1,8.569679260E-1,-9.066945190E0,-2.275717621E0,9.387373424E0
1.296412487E1,1.071771240E0,-9.475745087E0,-3.111429749E0,1.003092387E1
1.297419087E1,1.259780273E0,-9.374555511E0,-3.418141937E0,1.005748635E1
1.298425688E1,1.571432190E0,-8.776100006E0,-3.859723663E0,9.715286779E0
1.299432287E1,3.250191193E0,-7.885901184E0,-5.510041809E0,1.015439516E1
1.300438887E1,5.008883972E0,-7.356901245E0,-5.980663147E0,1.072293086E1
1.301445487E1,4.971312103E0,-7.848029938E0,-4.730313263E0,1.042503628E1
1.302452087E1,3.967948608E0,-8.741821289E0,-2.214494934E0,9.852311578E0
1.303458688E1,2.661764832E0,-9.400900726E0,-1.351689148E-1,9.771396887E0
1.304465287E1,1.711540833E0,-9.732311554E0,8.220904541E-1,9.915800165E0
1.305471787E1,1.567240906E0,-9.922715607E0,1.114432526E0,1.010734826E1
1.306478387E1,1.939666443E0,-1.006267456E1,1.161135406E0,1.031348441E1
1.307484988E1,2.126028900E0,-1.003228775E1,1.078357544E0,1.031162700E1
1.308491587E1,2.216291199E0,-1.026131149E1,1.383722534E0,1.058872742E1
1.309498187E1,2.377505951E0,-1.057999878E1,1.608854370E0,1.096254173E1
1.310504787E1,2.613415375E0,-1.091500214E1,1.561852112E0,1.133166332E1
1.311511387E1,3.360661469E0,-1.124147324E1,8.364605713E-1,1.176284117E1
1.312517988E1,4.601131897E0,-1.131197662E1,-9.264234924E-1,1.224701965E1
1.313524487E1,5.200335846E0,-1.112995514E1,-3.295846252E0,1.271935520E1
1.314531087E1,3.522025909E0,-1.132350266E1,-4.974305878E0,1.285963055E1
1.315537687E1,1.661395111E0,-1.199216217E1,-5.228926392E0,1.318764037E1
1.316544288E1,3.315605164E-1,-1.262848892E1,-4.191134491E0,1.330993137E1
1.317550887E1,-2.820135498E-1,-1.337244186E1,-2.740052032E0,1.365319077E1
1.318557487E1,-5.294490051E-1,-1.418974228E1,-1.735940094E0,1.430533433E1
1.319564087E1,-9.520202637E-1,-1.475376938E1,-1.045575714E0,1.482137922E1
1.320570687E1,-9.771679688E-1,-1.485929993E1,-1.285676422E0,1.494679281E1
1.321577288E1,-7.946974182E-1,-1.450408859E1,-2.292033691E0,1.470556182E1
1.322583787E1,-7.234455872E-1,-1.404963364E1,-3.688629456E0,1.454378101E1
1.323590387E1,-4.278103638E-1,-1.425575500E1,-4.659211121E0,1.500392684E1
1.324596987E1,-2.080673218E-2,-1.495764542E1,-4.562661896E0,1.563807766E1
1.325603588E1,6.420149231E-1,-1.507979141E1,-4.577630768E0,1.577234908E1
1.326610187E1,1.887874146E0,-1.456935287E1,-5.573659515E0,1.571291801E1
1.327616787E1,3.708687744E0,-1.370385269E1,-6.682852936E0,1.569109514E1
1.328623387E1,5.478307800E0,-1.270857239E1,-5.399421844E0,1.485508077E1
1.329629987E1,6.593788147E0,-1.180609909E1,-1.531614990E0,1.360910954E1
1.330636487E1,6.712191925E0,-1.130628845E1,2.375260620E0,1.336141991E1
1.331643087E1,6.873107300E0,-1.163485519E1,4.363875275E0,1.420045305E1
1.332649687E1,8.477321320E0,-1.264585281E1,5.326822815E0,1.612940208E1
1.333656287E1,1.057460999E1,-1.347797241E1,5.766159210E0,1.807558322E1
1.334662888E1,1.210876968E1,-1.365490448E1,6.418652344E0,1.934626107E1
1.335669487E1,1.285451889E1,-1.252969437E1,6.954537964E0,1.925090894E1
1.336676087E1,1.216714828E1,-1.085512665E1,5.751190338E0,1.729015507E1
1.337682687E1,9.470955048E0,-9.218879242E0,4.726421356E0,1.403658729E1
1.338689287E1,6.718778229E0,-8.230334930E0,4.560266876E0,1.156185227E1
1.339695787E1,4.678071899E0,-7.808212738E0,2.945424957E0,9.567030419E0
1.340702387E1,2.984044647E0,-8.119864655E0,3.394940186E-1,8.657481196E0
1.341708987E1,2.051184540E0,-8.936266937E0,-1.297651520E0,9.260028308E0
1.342715587E1,3.989204407E-1,-1.001716919E1,-2.200124817E0,1.026369160E1
1.343722188E1,-1.637893982E0,-1.107486969E1,-3.714525604E0,1.179547099E1
1.344728787E1,-3.241509247E0,-1.163829803E1,-4.298012238E0,1.282303679E1
1.345735387E1,-4.107159119E0,-1.142484192E1,-2.859204254E0,1.247280313E1
1.346741987E1,-3.793261871E0,-1.074600357E1,-1.272354126E-1,1.139656164E1
1.347748587E1,-2.135908356E0,-9.698631592E0,1.457219696E0,1.003738255E1
1.348755087E1,-4.469705200E-1,-8.232280884E0,2.011367340E0,8.486214101E0
1.349761687E1,5.295986938E-1,-6.860982513E0,2.527943115E0,7.331033503E0
1.350768287E1,1.484463043E0,-5.586682434E0,2.996917877E0,6.511233977E0
1.351774887E1,2.582280121E0,-4.468807068E0,3.445235596E0,6.205485923E0
1.352781488E1,3.472329254E0,-3.502416687E0,3.933819580E0,6.308639282E0
1.353788087E1,4.076023865E0,-2.564167786E0,4.306843872E0,6.460482267E0
1.354794687E1,4.530329132E0,-1.620081024E0,4.484225006E0,6.576991598E0
1.355801287E1,4.788242798E0,-4.857398987E-1,4.639601898E0,6.684992006E0
1.356807787E1,4.713099060E0,3.156935120E-1,4.649631042E0,6.628124469E0
1.357814425E1,4.437073059E0,-9.939331055E-2,4.323908386E0,6.196263398E0
1.358821025E1,3.749103699E0,-1.214424591E0,3.684587860E0,5.395071207E0
1.359827625E1,2.932402039E0,-1.926194458E0,2.941383362E0,4.578312231E0
1.360834225E1,2.414479065E0,-2.195634155E0,2.378104706E0,4.038056524E0
1.361840825E1,2.227068787E0,-2.315834198E0,1.997446289E0,3.783214915E0
1.362847425E1,2.395169220E0,-2.570454712E0,1.303489380E0,3.747420123E0
1.363854025E1,2.734513550E0,-3.176244965E0,-2.086660767E-1,4.196383915E0
1.364860625E1,3.650758209E0,-4.371808777E0,-2.993774414E0,6.434549924E0
1.365867125E1,5.358556824E0,-6.756649475E0,-9.679920502E0,1.296407746E1
1.366873725E1,7.465724945E0,-1.205592957E1,-2.364857254E1,2.757421748E1
1.367880325E1,8.562793579E0,-2.025632675E1,-2.970602600E1,3.696063025E1
1.368886925E1,6.568939819E0,-2.591890137E1,-2.359902557E1,3.566306810E1
1.369893525E1,2.931354218E0,-2.687825638E1,-1.479328720E1,3.082003974E1
1.370900125E1,3.493285675E0,-2.292527664E1,-1.076082275E1,2.556494984E1
1.371906725E1,4.668042755E0,-1.649749329E1,-8.136330414E0,1.897782339E1
1.372913325E1,3.331322479E0,-1.126392654E1,-4.932991791E0,1.274002193E1
1.373919925E1,2.203118591E0,-8.306227112E0,-2.722987518E0,9.014532788E0
1.374926425E1,2.246079254E0,-7.447313232E0,-1.232836304E0,7.875736902E0
1.375933025E1,3.160228271E0,-8.383466492E0,-1.104253693E0,9.027121876E0
1.376939625E1,4.220024414E0,-1.024634262E1,-2.759062500E0,1.141965713E1
1.377946225E1,5.872288513E0,-1.191118057E1,-3.504662018E0,1.373472427E1
1.378952825E1,8.669671326E0,-1.266965332E1,-9.696835327E-1,1.538257463E1
1.379959425E1,1.109313171E1,-1.271710464E1,2.077380066E0,1.700287710E1
1.380966025E1,9.876910858E0,-1.018317398E1,4.223018188E0,1.480149597E1
1.381972625E1,6.817722473E0,-6.319109344E0,5.522615662E0,1.081257446E1
1.382979125E1,5.277874603E0,-4.339176636E0,5.967340851E0,9.071580404E0
1.383985725E1,4.606520691E0,-3.314856720E0,5.763315125E0,8.088517118E0
1.384992325E1,4.549638977E0,-3.382066956E0,5.434449005E0,7.853077594E0
1.385998925E1,5.019062805E0,-4.518803101E0,4.754113770E0,8.259065966E0
1.387005525E1,4.903203735E0,-5.866300964E0,4.079616394E0,8.665919674E0
1.388012125E1,4.629722443E0,-6.819967804E0,3.489244080E0,8.951039883E0
1.389018725E1,4.561165009E0,-7.478149109E0,3.197650452E0,9.324800735E0
1.390025325E1,4.606969757E0,-8.008645935E0,3.102298737E0,9.746119100E0
1.391031925E1,4.845723267E0,-8.671916656E0,3.066822510E0,1.039656543E1
1.392038425E1,4.740043030E0,-9.630373535E0,3.167862396E0,1.119140092E1
1.393045025E1,4.199816437E0,-1.100631226E1,3.341351624E0,1.224508057E1
1.394051625E1,3.086132355E0,-1.272713379E1,3.538940735E0,1.356570120E1
1.395058225E1,2.013163605E0,-1.376477600E1,3.592080231E0,1.436749548E1
1.396064825E1,9.621990967E-1,-1.419064041E1,3.758234711E0,1.471137079E1
1.397071425E1,-1.736389160E-1,-1.391431503E1,3.772455139E0,1.441768813E1
1.398078025E1,-8.167016602E-1,-1.295181656E1,3.232976990E0,1.337418012E1
1.399084625E1,-8.457412720E-1,-1.168829407E1,2.267484741E0,1.193620474E1
1.400091125E1,-5.798941040E-1,-1.038570282E1,1.345402222E0,1.048852742E1
1.401097725E1,-1.706451416E-1,-9.332343292E0,5.635780334E-1,9.350902164E0
1.402104325E1,1.649569702E-1,-8.441545715E0,-2.621049500E-1,8.447224625E0
1.403110925E1,7.548802185E-1,-7.823031921E0,-1.563199310E0,8.013317956E0
1.404117525E1,1.344803467E0,-7.931406555E0,-3.034639435E0,8.597949919E0
1.405124125E1,1.420096893E0,-8.428672485E0,-3.706592102E0,9.316545500E0
1.406130725E1,1.500928802E0,-8.551716614E0,-3.615731049E0,9.405219579E0
1.407137325E1,1.485810242E0,-8.367599487E0,-2.981050873E0,9.006165530E0
1.408143925E1,1.867516479E0,-7.991431732E0,-2.637964325E0,8.620293192E0
1.409150425E1,3.192111969E0,-7.435936890E0,-2.902464294E0,8.596920101E0
1.410157025E1,4.443060608E0,-7.250023499E0,-3.012934570E0,9.021164172E0
1.411163625E1,4.789290619E0,-7.526049500E0,-2.465672607E0,9.255175153E0
1.412170225E1,4.391417999E0,-7.968529358E0,-1.147663422E0,9.170558516E0
1.413176825E1,3.374432831E0,-8.592881012E0,2.802172852E-1,9.235958139E0
1.414183425E1,2.559377747E0,-8.963510284E0,9.334588623E-1,9.368365733E0
1.415190025E1,2.512525177E0,-9.394464111E0,1.278940430E0,9.808385562E0
1.416196625E1,2.655328217E0,-9.707612915E0,1.304537201E0,1.014841533E1
1.417203225E1,2.722538452E0,-1.003198837E1,1.267115021E0,1.047179960E1
1.418209725E1,2.486329651E0,-1.025996429E1,1.451980591E0,1.065631034E1
1.419216325E1,2.543361053E0,-1.045575714E1,1.744622040E0,1.090115815E1
1.420222925E1,2.991379395E0,-1.072624466E1,2.437082062E0,1.139912471E1
1.421229525E1,3.985611877E0,-1.123084534E1,1.937421112E0,1.207354917E1
1.422236125E1,5.399122467E0,-1.147603546E1,-7.725434875E-1,1.270616924E1
1.423242725E1,5.761069794E0,-1.127739853E1,-5.006638641E0,1.361749144E1
1.424249325E1,4.117787018E0,-1.130060028E1,-7.090305634E0,1.396181115E1
1.425255925E1,2.355352020E0,-1.197015793E1,-8.069120178E0,1.462679269E1
1.426262425E1,6.001020813E-1,-1.281021103E1,-7.131170654E0,1.467362341E1
1.427269025E1,-2.939886475E-1,-1.387853943E1,-5.290747833E0,1.485571603E1
1.428275625E1,-5.786965942E-1,-1.493294678E1,-3.865411835E0,1.543597091E1
1.429282225E1,-8.409512329E-1,-1.565609299E1,-2.880160675E0,1.594100913E1
1.430288825E1,-1.115480347E0,-1.576581482E1,-2.023192749E0,1.593419349E1
1.431295425E1,-1.108594666E0,-1.530522263E1,-2.107168121E0,1.548931823E1
1.432302025E1,-1.090033264E0,-1.483714600E1,-2.952759705E0,1.516732883E1
1.433308625E1,-9.481283569E-1,-1.473865082E1,-3.150648193E0,1.510143567E1
1.434315125E1,-1.269360352E-1,-1.484088821E1,-2.903362427E0,1.512275071E1
1.435321725E1,1.137035522E0,-1.469269638E1,-3.879033508E0,1.523860485E1
1.436328325E1,2.895877991E0,-1.436083649E1,-6.117628326E0,1.587592864E1
1.437334925E1,5.363945618E0,-1.361179413E1,-6.348298645E0,1.594847164E1
1.438341525E1,7.070995789E0,-1.268821472E1,-2.879861298E0,1.480821986E1
1.439348125E1,7.393724670E0,-1.188947571E1,1.359323273E0,1.406678915E1
1.440354725E1,7.733368378E0,-1.184756287E1,3.976480865E0,1.469633058E1
1.441361325E1,8.833879852E0,-1.241458374E1,5.200036469E0,1.609968018E1
1.442367925E1,1.075678116E1,-1.324221268E1,5.740861816E0,1.800061199E1
1.443374425E1,1.232821335E1,-1.341869568E1,6.198160858E0,1.924742674E1
1.444381025E1,1.301827835E1,-1.236114487E1,6.428681488E0,1.906833552E1
1.445387625E1,1.223600510E1,-1.081201630E1,5.370681610E0,1.718905867E1
1.446394225E1,9.918075256E0,-9.361682281E0,4.153113556E0,1.425684622E1
1.447400825E1,7.602390747E0,-8.458460541E0,3.570525055E0,1.192017403E1
1.448407425E1,5.301525421E0,-8.221952362E0,3.160677338E0,1.028088292E1
1.449414025E1,3.719465332E0,-8.494086456E0,1.197809143E0,9.349795390E0
1.450420625E1,2.264490967E0,-9.320517883E0,-4.849914551E-1,9.603915330E0
1.451427125E1,8.652008057E-1,-1.023586441E1,-1.189426575E0,1.034099745E1
1.452433725E1,-7.173083496E-1,-1.113205078E1,-1.466201019E0,1.125108134E1
1.453440325E1,-2.575843506E0,-1.178140045E1,-2.828967133E0,1.238706670E1
1.454446925E1,-3.724105682E0,-1.161255157E1,-3.234773254E0,1.261681716E1
1.455453525E1,-3.807631989E0,-1.095122681E1,-1.235081635E0,1.165988236E1
1.456460125E1,-2.532433777E0,-1.013467484E1,1.130299530E0,1.050725615E1
1.457466688E1,-7.628137207E-1,-8.918154602E0,2.194137268E0,9.215725942E0
1.458473287E1,6.083349609E-1,-7.322023773E0,2.511926422E0,7.764784473E0
1.459479887E1,1.716330872E0,-5.932014313E0,3.088527374E0,6.904606202E0
1.460486387E1,2.903063049E0,-4.587360535E0,3.644471283E0,6.538640736E0
1.461492987E1,3.743415527E0,-3.303929443E0,4.164789276E0,6.501890440E0
1.462499587E1,4.261338501E0,-2.008822632E0,4.645589447E0,6.616333992E0
1.463506187E1,4.571343842E0,-6.150709534E-1,4.994064789E0,6.798248297E0
1.464512787E1,4.814138947E0,7.262896729E-1,5.186414795E0,7.113531395E0
1.465519387E1,4.854704590E0,7.737409973E-1,5.147495728E0,7.117832820E0
1.466525988E1,4.342769165E0,-2.386038208E-1,4.735851746E0,6.429997477E0
1.467532587E1,3.420387268E0,-1.147214355E0,3.986659698E0,5.376672334E0
1.468539087E1,2.764301605E0,-1.708996124E0,3.414100342E0,4.713609261E0
1.469545687E1,2.335742798E0,-1.945803680E0,2.995870056E0,4.268147581E0
1.470552287E1,2.141895905E0,-2.115999756E0,2.704426117E0,4.047109296E0
1.471558887E1,2.309247894E0,-2.398162994E0,2.263892212E0,4.026042664E0
1.472565487E1,2.583627319E0,-3.043171692E0,1.179547119E0,4.162614020E0
1.473572087E1,3.362457733E0,-4.316723328E0,-1.312770081E0,5.627040748E0
1.474578687E1,4.974006500E0,-6.895111542E0,-8.084388428E0,1.173203478E1
1.475585288E1,7.873177643E0,-1.323951828E1,-2.848531448E1,3.238340488E1
1.476591887E1,1.163201111E1,-2.415661606E1,-3.937112732E1,4.763330188E1
1.477598387E1,5.791905670E0,-3.062750977E1,-2.326746506E1,3.889685663E1
1.478604987E1,1.998793488E0,-2.935006622E1,-1.204739731E1,3.178932753E1
1.479611587E1,4.386029205E0,-2.206396774E1,-9.160500641E0,2.428931240E1
1.480618187E1,3.879033508E0,-1.367750748E1,-6.288572845E0,1.554565084E1
1.481624787E1,1.659748535E0,-7.672744446E0,-3.676504669E0,8.668475017E0
1.482631387E1,-1.236428833E-1,-4.200115814E0,-1.544937286E0,4.476951154E0
1.483637987E1,-7.122189331E-1,-2.459235992E0,3.089575195E-1,2.578866461E0
1.484644588E1,3.727249146E-2,-2.643353119E0,1.124761047E0,2.872941413E0
1.485651187E1,1.680704956E0,-4.574038239E0,1.467099152E0,5.089103544E0
1.486657687E1,4.372856598E0,-7.831713867E0,1.897903290E0,9.168405195E0
1.487664287E1,7.846383362E0,-1.220052887E1,3.167862396E0,1.484769304E1
1.488670887E1,1.170655609E1,-1.553230042E1,3.730991364E0,1.980444668E1
1.489677488E1,1.535581741E1,-1.798001038E1,2.372416534E0,2.376363318E1
1.490684087E1,1.332469116E1,-1.808778625E1,1.716330872E0,2.253133813E1
1.491690687E1,8.436306610E0,-1.254855515E1,1.690135345E0,1.521492895E1
1.492697287E1,5.430108032E0,-6.717880096E0,2.402354279E0,8.965896069E0
1.493703887E1,4.898264008E0,-4.872068481E0,3.108585663E0,7.575839650E0
1.494710387E1,4.767885132E0,-4.731959839E0,3.046614532E0,7.376044513E0
1.495716987E1,4.320465546E0,-4.989274750E0,2.803819427E0,7.170822020E0
1.496723587E1,3.745062103E0,-5.392536163E0,2.496807861E0,7.024171547E0
1.497730187E1,3.241359558E0,-5.821993103E0,2.294428711E0,7.047440570E0
1.498736788E1,3.194357300E0,-6.363417206E0,2.675685883E0,7.606332364E0
1.499743387E1,3.657494202E0,-7.198979645E0,3.089575195E0,8.645695267E0
1.500749987E1,4.018842773E0,-8.600664825E0,3.412453766E0,1.008798163E1
1.501756587E1,3.890110474E0,-1.064391586E1,3.811374207E0,1.195627357E1
1.502763187E1,3.011287994E0,-1.259944931E1,4.299509125E0,1.364916690E1
1.503769687E1,1.759291534E0,-1.386880966E1,4.650229797E0,1.473307929E1
1.504776287E1,4.978646851E-1,-1.426533508E1,4.666396179E0,1.501742014E1
1.505782887E1,-4.784051514E-1,-1.383617752E1,4.339326324E0,1.450856412E1
1.506789487E1,-6.707551575E-1,-1.280601974E1,3.419638824E0,1.327169861E1
1.507796088E1,-3.924838257E-1,-1.121677460E1,2.247725830E0,1.144649935E1
1.508802687E1,-8.622070312E-2,-9.739945679E0,1.263672180E0,9.821957199E0
1.509809287E1,5.059478760E-2,-8.631500702E0,7.613168335E-1,8.665158251E0
1.510815887E1,4.150868225E-1,-7.707023163E0,3.384461975E-1,7.725609939E0
1.511822388E1,9.366023254E-1,-6.921456757E0,-5.876779175E-1,7.009219135E0
1.512828987E1,1.047371979E0,-6.540648651E0,-1.390458527E0,6.768341581E0
1.513835587E1,1.263522491E0,-7.003935242E0,-1.995350647E0,7.391415437E0
1.514842187E1,1.486558685E0,-7.787406006E0,-2.384241943E0,8.278777607E0
1.515848787E1,1.639390869E0,-8.275391235E0,-2.455643463E0,8.786346643E0
1.516855388E1,1.936223602E0,-8.442743225E0,-2.552941132E0,9.030303618E0
1.517861987E1,3.387904816E0,-8.323291626E0,-3.771407318E0,9.745696265E0
1.518868587E1,5.352419586E0,-8.151748352E0,-4.926106110E0,1.092547107E1
1.519875187E1,6.330485687E0,-8.465346222E0,-4.525838470E0,1.149871078E1
1.520881688E1,5.257816315E0,-8.865015106E0,-2.835553436E0,1.068987785E1
1.521888287E1,3.878434753E0,-9.248667297E0,-7.322772217E-1,1.005566173E1
1.522894887E1,2.689906311E0,-9.408085785E0,4.120930481E-1,9.793747739E0
1.523901487E1,2.182611237E0,-9.452992401E0,9.954299927E-1,9.752627237E0
1.524908087E1,2.146386566E0,-9.446705475E0,1.097517700E0,9.749449457E0
1.525914688E1,2.453996887E0,-9.598489838E0,1.099313965E0,9.968028846E0
1.526921287E1,2.495460663E0,-9.901759186E0,1.327140198E0,1.029725497E1
1.527927887E1,2.055675201E0,-1.012255005E1,1.566492462E0,1.044728284E1
1.528934387E1,1.986968079E0,-1.037118301E1,1.611848145E0,1.068211279E1
1.529940988E1,2.089654541E0,-1.064496368E1,1.768123169E0,1.099127688E1
1.530947587E1,2.319726105E0,-1.088790848E1,1.503922577E0,1.123340836E1
1.531954187E1,2.393522644E0,-1.107082809E1,1.095871124E0,1.137950433E1
1.532960787E1,2.454296265E0,-1.128129044E1,4.134402466E-1,1.155257620E1
1.533967387E1,3.095862122E0,-1.147304169E1,-2.107018433E0,1.206874370E1
1.534973988E1,2.811154175E0,-1.184591629E1,-5.750741272E0,1.346474455E1
1.535980587E1,2.113155670E0,-1.277159134E1,-7.262148285E0,1.484310513E1
1.536987187E1,1.340761871E0,-1.375025620E1,-5.972729645E0,1.505126863E1
1.537993687E1,9.783654785E-1,-1.406415344E1,-4.112847290E0,1.468581370E1
1.539000288E1,9.571096802E-1,-1.385399048E1,-2.936593323E0,1.419410763E1
1.540006887E1,1.038091278E0,-1.378423553E1,-2.388433228E0,1.402809310E1
1.541013487E1,1.151255951E0,-1.354263794E1,-2.501448212E0,1.381975672E1
1.542020087E1,1.233435059E0,-1.331915268E1,-3.473975830E0,1.381990225E1
1.543026687E1,1.332828369E0,-1.355027206E1,-4.714446259E0,1.440875803E1
1.544033288E1,1.312021637E0,-1.433000061E1,-4.958139496E0,1.522016641E1
1.545039887E1,1.044827271E0,-1.513652344E1,-4.211192780E0,1.574611541E1
1.546046387E1,1.041384430E0,-1.510628632E1,-3.990551605E0,1.565914653E1
1.547052987E1,1.769919434E0,-1.425725189E1,-5.009782104E0,1.521511627E1
1.548059588E1,3.144810333E0,-1.299343002E1,-5.719156952E0,1.454055749E1
1.549066187E1,4.614154816E0,-1.177825699E1,-4.109703827E0,1.330065517E1
1.550072787E1,5.655239868E0,-1.105301514E1,-5.487588501E-1,1.242787262E1
1.551079387E1,6.135441284E0,-1.091455307E1,2.476150818E0,1.276332368E1
1.552085987E1,6.925947418E0,-1.155058044E1,4.030817871E0,1.405817019E1
1.553092588E1,8.537645874E0,-1.276036469E1,4.729714508E0,1.606513316E1
1.554099087E1,1.058808197E1,-1.376103378E1,5.324427795E0,1.816103141E1
1.555105687E1,1.187495590E1,-1.379546219E1,6.054309998E0,1.918290969E1
1.556112287E1,1.205518112E1,-1.263747025E1,6.299051056E0,1.856639680E1
1.557118888E1,1.058853104E1,-1.099867813E1,5.075046387E0,1.608862971E1
1.558125512E1,7.712411957E0,-9.780810699E0,4.410428467E0,1.321353228E1
1.559132112E1,5.219046936E0,-9.252858582E0,4.416565704E0,1.150477707E1
1.560138712E1,3.452570343E0,-8.958570557E0,2.352358246E0,9.884827652E0
1.561145312E1,2.333497467E0,-9.039103088E0,-6.445596313E-1,9.357673439E0
1.562151913E1,1.266516266E0,-9.586365051E0,-2.323318634E0,9.944861378E0
1.563158412E1,-6.126759338E-1,-1.061008621E1,-2.777474213E0,1.098470137E1
1.564165012E1,-2.488275604E0,-1.161689255E1,-3.917952576E0,1.250975860E1
1.565171612E1,-3.296744385E0,-1.167901337E1,-3.744912415E0,1.270008842E1
1.566178212E1,-3.182382202E0,-1.081186661E1,-1.187630310E0,1.133289380E1
1.567184812E1,-2.013762360E0,-9.836195526E0,1.046174469E0,1.009457588E1
1.568191412E1,-5.998027039E-1,-9.008117523E0,2.421514435E0,9.347174801E0
1.569198012E1,4.189787292E-1,-7.755372620E0,2.962190094E0,8.312395431E0
1.570204612E1,1.322948914E0,-6.466403046E0,3.088377686E0,7.287155749E0
1.571211213E1,2.208208008E0,-5.288053436E0,3.404071198E0,6.665387646E0
1.572217712E1,3.088826752E0,-4.201762390E0,3.861070862E0,6.488722993E0
1.573224312E1,3.752247162E0,-3.312910767E0,4.285288696E0,6.589266706E0
1.574230912E1,4.208199005E0,-2.368824005E0,4.558021545E0,6.640468842E0
1.575237512E1,4.309538269E0,-1.488354950E0,4.719984741E0,6.562436781E0
1.576244112E1,4.095782776E0,-7.604187012E-1,4.731061707E0,6.303698757E0
1.577250712E1,3.729494476E0,-7.710466003E-1,4.461172943E0,5.865637726E0
1.578257312E1,3.288212128E0,-1.589544525E0,4.031865692E0,5.440122402E0
1.579263912E1,2.743494873E0,-2.203118591E0,3.531905365E0,4.985463986E0
1.580270413E1,2.311942291E0,-2.371518402E0,3.145259399E0,4.567475602E0
1.581277012E1,1.957928467E0,-2.405647430E0,2.859054565E0,4.218390267E0
1.582283612E1,1.888772278E0,-2.501897278E0,2.658771057E0,4.110476157E0
1.583290212E1,2.161654816E0,-2.781815186E0,2.082020416E0,4.092194556E0
1.584296812E1,2.452649689E0,-3.504063263E0,5.563929749E-1,4.313180148E0
1.585303413E1,3.525319061E0,-4.907095642E0,-2.593955841E0,6.575413982E0
1.586310012E1,5.555696869E0,-7.681576080E0,-1.067594925E1,1.427754430E1
1.587316612E1,8.616382141E0,-1.384560791E1,-2.776516205E1,3.220011061E1
1.588323112E1,9.411378937E0,-2.328872086E1,-3.258498917E1,4.114267968E1
1.589329713E1,5.607938232E0,-2.872302017E1,-2.060450272E1,3.579114962E1
1.590336312E1,3.591182098E0,-2.745545609E1,-1.192270660E1,3.014713238E1
1.591342912E1,5.080435181E0,-2.125175674E1,-9.057365112E0,2.365341094E1
1.592349512E1,4.895868988E0,-1.419108948E1,-6.074817352E0,1.619444224E1
1.593356112E1,2.863395538E0,-8.832981720E0,-3.526217194E0,9.932512661E0
1.594362713E1,1.048270111E0,-5.456902313E0,-1.260379028E0,5.697824881E0
1.595369312E1,6.869215393E-1,-3.890409851E0,3.367996216E-1,3.964919166E0
1.596375912E1,2.278711395E0,-4.674928436E0,9.577084351E-1,5.288164800E0
1.597382412E1,3.943549347E0,-7.389982452E0,9.833052063E-1,8.433878777E0
1.598389013E1,5.613476715E0,-1.078582077E1,3.100053406E-1,1.216310626E1
1.599395612E1,8.346343689E0,-1.365939514E1,-3.959266663E-1,1.601241039E1
1.600402212E1,1.184920944E1,-1.506572067E1,-3.162922668E-1,1.916976120E1
1.601408812E1,1.165970352E1,-1.484627701E1,5.382806396E-1,1.888518926E1
1.602415412E1,7.494614868E0,-1.145433060E1,1.625469818E0,1.378452370E1
1.603422013E1,4.486320648E0,-7.307503967E0,3.224893799E0,9.161147701E0
1.604428612E1,3.365301819E0,-4.812043304E0,4.163292389E0,7.198195650E0
1.605435212E1,3.269051971E0,-3.946243744E0,4.299808502E0,6.689386641E0
1.606441712E1,3.538341980E0,-4.129163361E0,4.226910095E0,6.887424989E0
1.607448313E1,4.151317291E0,-4.939129028E0,3.880680084E0,7.529150598E0
1.608454912E1,4.373904419E0,-5.825435944E0,3.313958588E0,8.003065995E0
1.609461512E1,4.229604492E0,-6.471193085E0,3.004851379E0,8.294276696E0
1.610468112E1,4.164040833E0,-6.944658508E0,2.963537292E0,8.622648731E0
1.611474712E1,4.285887451E0,-7.427105255E0,2.944227448E0,9.066377390E0
1.612481313E1,4.646637268E0,-8.378676453E0,2.939587097E0,1.002170790E1
1.613487912E1,4.609364777E0,-9.845476227E0,3.022963715E0,1.128352584E1
1.614494412E1,4.091142426E0,-1.159189453E1,3.302881622E0,1.272864848E1
1.615501012E1,3.243455200E0,-1.290301804E1,3.388204193E0,1.372908605E1
1.616507613E1,2.150727539E0,-1.360191467E1,3.410208435E0,1.418686834E1
1.617514212E1,8.848100281E-1,-1.372825195E1,3.615431671E0,1.422389316E1
1.618520812E1,-9.430389404E-2,-1.323263260E1,3.539988556E0,1.369828375E1
1.619527412E1,-2.722837830E-1,-1.207703568E1,2.708767090E0,1.238007869E1
1.620534012E1,1.766326904E-2,-1.082473984E1,1.692680054E0,1.095629820E1
1.621540613E1,2.348616028E-1,-9.721533966E0,1.118324432E0,9.788464239E0
1.622547212E1,6.186634827E-1,-8.718020782E0,4.453239441E-1,8.751282437E0
1.623553712E1,1.239422607E0,-7.836354218E0,-8.921447754E-1,7.983767164E0
1.624560312E1,2.127675476E0,-7.471562805E0,-2.645897827E0,8.206828193E0
1.625566913E1,2.535277863E0,-7.881111145E0,-3.865411835E0,9.136791306E0
1.626573512E1,2.461032257E0,-8.393944702E0,-4.021088104E0,9.627260097E0
1.627580112E1,2.287543030E0,-8.470585327E0,-3.506009216E0,9.448585583E0
1.628586712E1,2.456691284E0,-8.272996216E0,-2.882406006E0,9.098684676E0
1.629593312E1,2.868035889E0,-8.070467377E0,-2.215542755E0,8.846847079E0
1.630599913E1,3.384611664E0,-7.958799591E0,-1.572480011E0,8.790379994E0
1.631606412E1,3.570225677E0,-7.886350250E0,-1.005608826E0,8.715060572E0
1.632613012E1,3.334615631E0,-7.959997101E0,-3.312611389E-1,8.636605189E0
1.633619612E1,3.128344574E0,-8.331225128E0,2.709365845E-1,8.903328509E0
1.634626213E1,2.929408264E0,-8.614436188E0,7.694000244E-1,9.131370106E0
1.635632812E1,2.847977600E0,-8.835077362E0,1.031954041E0,9.339940982E0
1.636639412E1,2.920277252E0,-8.971593475E0,1.144669647E0,9.504092661E0
1.637646012E1,3.015329590E0,-9.013805695E0,1.239721985E0,9.585291661E0
1.638652612E1,3.058739319E0,-9.113049316E0,1.500629425E0,9.729102874E0
1.639659213E1,3.138373718E0,-9.414073334E0,1.768721924E0,1.007980871E1
1.640665712E1,3.487896881E0,-9.915979614E0,1.929487610E0,1.068714175E1
1.641672312E1,4.127816162E0,-1.050904633E1,2.148931274E0,1.149333836E1
1.642678912E1,5.341641998E0,-1.103205872E1,1.622026978E0,1.236407822E1
1.643685513E1,6.909930725E0,-1.113728989E1,-1.391356659E0,1.318037336E1
1.644692112E1,6.076014862E0,-1.112217133E1,-4.357738037E0,1.340188540E1
1.645698712E1,3.983216858E0,-1.124955643E1,-6.148314514E0,1.342461574E1
1.646705312E1,2.399360504E0,-1.154489227E1,-7.049590302E0,1.373820191E1
1.647711912E1,8.430468750E-1,-1.238569382E1,-6.405928802E0,1.396968372E1
1.648718412E1,-7.095245361E-2,-1.376507538E1,-5.360652466E0,1.477223508E1
1.649725012E1,-1.838177490E-1,-1.487187378E1,-4.181853790E0,1.544973527E1
1.650731612E1,-2.597099304E-1,-1.551433777E1,-3.342549133E0,1.587245288E1
1.651738212E1,-2.710862732E-1,-1.563857941E1,-2.899171143E0,1.590735198E1
1.652744813E1,-4.953199768E-1,-1.539787994E1,-2.694097595E0,1.563963588E1
1.653751412E1,-9.229806519E-1,-1.524819122E1,-3.318449249E0,1.563238095E1
1.654758012E1,-1.043929138E0,-1.561807205E1,-3.295995941E0,1.599617304E1
1.655764612E1,-3.498225403E-1,-1.594843506E1,-2.834206238E0,1.620208880E1
1.656771212E1,8.303233337E-1,-1.565369797E1,-3.655099182E0,1.609619355E1
1.657777700E1,2.520159302E0,-1.461366074E1,-5.372028809E0,1.577241188E1
1.658784300E1,4.777614899E0,-1.318787567E1,-5.355413361E0,1.501419732E1
1.659790900E1,6.584357758E0,-1.196536789E1,-2.325863342E0,1.385400433E1
1.660797500E1,7.339836731E0,-1.125210114E1,1.399589539E0,1.350710310E1
1.661804100E1,7.876470795E0,-1.139131165E1,3.747157745E0,1.434719361E1
1.662810700E1,8.931027832E0,-1.196072754E1,4.835544434E0,1.569091302E1
1.663817300E1,1.051413574E1,-1.281604889E1,5.185217285E0,1.736907130E1
1.664823900E1,1.166194885E1,-1.311886917E1,5.779930573E0,1.848008054E1
1.665830400E1,1.215382599E1,-1.235710327E1,6.084846497E0,1.836950855E1
1.666837000E1,1.133263367E1,-1.082024918E1,5.369633789E0,1.656319248E1
1.667843600E1,9.334139557E0,-9.294472046E0,4.287683716E0,1.385271105E1
1.668850200E1,7.299869843E0,-8.618028717E0,3.597918091E0,1.185341863E1
