"Time (s)","Acceleration x (m/s^2)","Acceleration y (m/s^2)","Acceleration z (m/s^2)","Absolute acceleration (m/s^2)"
2.817708300E-3,-2.956501923E0,5.116659851E0,6.479276276E0,8.769386108E0
1.288470830E-2,-2.928659821E0,5.179379425E0,6.375691681E0,8.720806384E0
2.295170829E-2,-2.866389313E0,5.230273590E0,6.367758179E0,8.724694478E0
3.301870829E-2,-2.937192078E0,5.257816315E0,6.397845612E0,8.786589678E0
4.308670829E-2,-3.007994843E0,5.257816315E0,6.221512299E0,8.683310466E0
5.315370829E-2,-3.010838928E0,5.292095032E0,5.861510925E0,8.451552000E0
6.322070834E-2,-3.003653870E0,5.297184448E0,5.504353638E0,8.208532671E0
7.328770834E-2,-3.047512665E0,5.340594177E0,5.360652466E0,8.157565474E0
8.335470833E-2,-3.219654694E0,5.292394409E0,5.276677094E0,8.137501833E0
9.342170833E-2,-3.429218903E0,5.275329895E0,4.958738251E0,8.011100600E0
1.034887083E-1,-3.410956879E0,5.364394684E0,5.295238495E0,8.273506383E0
1.135557083E-1,-3.470233612E0,5.264103241E0,5.299729156E0,8.236530422E0
1.236227083E-1,-3.552712097E0,5.162314911E0,5.155728607E0,8.114973565E0
1.336897083E-1,-3.630999298E0,5.122647400E0,4.981191559E0,8.014857555E0
1.437567083E-1,-3.713926849E0,5.055137787E0,4.749922485E0,7.868254845E0
1.538237083E-1,-3.686683502E0,4.969366150E0,4.725223846E0,7.785497773E0
1.638917083E-1,-3.463048553E0,4.801415405E0,5.009333038E0,7.754979862E0
1.739587083E-1,-3.161425781E0,4.666545868E0,5.369484100E0,7.784768642E0
1.840257083E-1,-2.885998535E0,4.524341583E0,5.476062469E0,7.667197303E0
1.940927083E-1,-2.864742737E0,4.398303680E0,5.380710754E0,7.516905908E0
2.041597083E-1,-2.975213013E0,4.334236908E0,5.377267914E0,7.520140442E0
2.142267083E-1,-3.116668854E0,4.412823486E0,5.397924957E0,7.637030163E0
2.242937083E-1,-3.406017151E0,4.533322906E0,5.174140320E0,7.676177268E0
2.343607083E-1,-3.440744934E0,4.409380646E0,4.743785248E0,7.333816323E0
2.444277083E-1,-3.578159180E0,3.922742615E0,3.610491943E0,6.420808735E0
2.544947083E-1,-3.711681519E0,3.850742340E0,3.315605164E0,6.292696867E0
2.645617083E-1,-4.248016205E0,3.730392609E0,5.091362457E0,7.608116874E0
2.746297083E-1,-4.641697540E0,3.942950592E0,7.277416534E0,9.489626275E0
2.846967083E-1,-4.601431274E0,3.972888336E0,8.683592377E0,1.060008434E1
2.947637083E-1,-4.329446869E0,3.769760742E0,9.299112396E0,1.092834377E1
3.048307083E-1,-3.992796936E0,3.587589569E0,9.185798035E0,1.063917816E1
3.148977083E-1,-3.609743500E0,3.471730499E0,8.587043152E0,9.940848600E0
3.249647083E-1,-3.361409912E0,3.378773804E0,8.467441864E0,9.716622908E0
3.350317083E-1,-3.783681793E0,3.244503021E0,8.660690002E0,9.992527162E0
3.450987083E-1,-4.702171783E0,2.824027405E0,8.826844482E0,1.039224392E1
3.551657083E-1,-4.988526306E0,2.399510193E0,9.645342407E0,1.112095652E1
3.652327083E-1,-5.173092499E0,2.710413666E0,1.018003052E1,1.173627921E1
3.752997083E-1,-5.214556274E0,3.351231079E0,9.722731476E0,1.153056175E1
3.853677083E-1,-5.814059601E0,3.282973022E0,8.821904755E0,1.106377894E1
3.954347083E-1,-6.435567169E0,3.021915894E0,8.262667694E0,1.090046687E1
4.055017083E-1,-6.855593719E0,2.883603516E0,8.557105408E0,1.133747712E1
4.155687083E-1,-7.156168671E0,2.737058258E0,9.813742218E0,1.245037246E1
4.256357083E-1,-7.962691498E0,2.568957825E0,1.102292770E1,1.383867535E1
4.357027083E-1,-8.878786469E0,2.614463196E0,1.149414780E1,1.475749642E1
4.457697083E-1,-9.153614960E0,3.190914459E0,1.093835358E1,1.461568270E1
4.558367083E-1,-8.807085571E0,3.669169922E0,9.634115753E0,1.355889931E1
4.659037083E-1,-8.264463959E0,3.411256256E0,8.594078522E0,1.240146037E1
4.759700416E-1,-7.813302155E0,3.018023987E0,8.072712708E0,1.163292095E1
4.860370416E-1,-7.611521759E0,2.689457245E0,7.590415649E0,1.108074246E1
4.961040416E-1,-9.339228973E0,4.004322968E0,8.323291626E0,1.313518115E1
5.061720416E-1,-9.238937531E0,3.946243744E0,9.133406982E0,1.357755241E1
5.162390416E-1,-1.012105316E1,2.133962402E0,8.510103149E0,1.339445289E1
5.263060416E-1,-1.064690964E1,2.581381989E0,9.111103363E0,1.424894460E1
5.363730416E-1,-1.023032593E1,3.277883606E0,9.092392273E0,1.407393643E1
5.464400416E-1,-1.014979340E1,3.086431732E0,8.097561035E0,1.334596799E1
5.565070416E-1,-9.736802216E0,3.078198853E0,7.230713654E0,1.251254752E1
5.665740417E-1,-9.165290680E0,3.120261383E0,6.469845886E0,1.164463353E1
5.766410417E-1,-8.751251678E0,2.895578613E0,5.995632019E0,1.099619865E1
5.867080417E-1,-8.826844482E0,2.822979584E0,5.901328125E0,1.098672248E1
5.967750417E-1,-9.526489563E0,2.957699432E0,5.546865234E0,1.141357539E1
6.068420417E-1,-9.925110626E0,3.110232239E0,4.965773621E0,1.152563548E1
6.169100417E-1,-9.815538483E0,3.376678162E0,4.882696381E0,1.147115840E1
6.269770417E-1,-9.422755280E0,3.419189758E0,4.465214539E0,1.097348243E1
6.370440417E-1,-8.824748840E0,3.029699707E0,3.884122925E0,1.010651687E1
6.471110416E-1,-8.731043701E0,2.786455536E0,3.728746033E0,9.894392631E0
6.571780416E-1,-8.191266174E0,2.927761688E0,3.566483459E0,9.401512342E0
6.672450416E-1,-7.371271362E0,4.153412933E0,1.835483093E0,8.657683217E0
6.773120416E-1,-7.447163544E0,3.432661743E0,-2.902464294E-1,8.205343045E0
6.873790416E-1,-6.571035461E0,3.368145905E0,-1.691482544E-1,7.385900419E0
6.974460416E-1,-6.476432190E0,3.062032471E0,6.643185425E-1,7.194549040E0
7.075130416E-1,-6.574029236E0,2.511327667E0,1.572629700E0,7.210949398E0
7.175800417E-1,-6.732549591E0,2.382894745E0,2.270328827E0,7.493984544E0
7.276470417E-1,-6.891369324E0,2.233056335E0,2.503843231E0,7.664642371E0
7.377150417E-1,-6.739884338E0,2.015109558E0,2.193688202E0,7.368783845E0
7.477820417E-1,-6.568191376E0,1.657652893E0,1.461560669E0,6.930015198E0
7.578490417E-1,-6.566544800E0,1.321751404E0,1.300495605E0,6.823329554E0
7.679160417E-1,-6.904691620E0,1.303938446E0,1.487456818E0,7.182447328E0
7.779830417E-1,-7.234006805E0,2.076481934E0,2.149530029E0,7.827075509E0
7.880500417E-1,-7.220085754E0,1.710193634E0,2.328108673E0,7.776534611E0
7.981170416E-1,-6.801705780E0,6.156697083E-1,1.766027527E0,7.054155083E0
8.081840416E-1,-6.214177551E0,-1.856140137E-2,1.231938171E0,6.335141579E0
8.182510416E-1,-5.966442719E0,-3.507206726E-1,7.126679993E-1,6.019081274E0
8.283180416E-1,-5.967939606E0,-8.074209595E-1,3.766168213E-1,6.034075901E0
8.383850416E-1,-6.338718567E0,-1.553319855E0,3.418890381E-1,6.535215663E0
8.484530416E-1,-7.083120575E0,-2.141746216E0,5.047503662E-1,7.417037607E0
8.585200416E-1,-7.432643738E0,-2.725083160E0,3.176394653E-1,7.922825632E0
8.685870416E-1,-7.569758606E0,-3.194806366E0,-2.814147949E-2,8.216375418E0
8.786540416E-1,-7.645501099E0,-3.429069214E0,-2.549198914E-1,8.383148983E0
8.887210417E-1,-7.878566437E0,-3.556154938E0,-5.554948425E-1,8.661790898E0
8.987880417E-1,-8.415948944E0,-3.935166779E0,-8.144563293E-1,9.326149973E0
9.088550417E-1,-9.333840179E0,-4.688699799E0,-1.189127197E0,1.051277802E1
9.189220417E-1,-1.044497955E1,-5.807922363E0,-1.931283875E0,1.210617270E1
9.289890417E-1,-1.109926895E1,-6.757248230E0,-2.510429535E0,1.323466778E1
9.390560417E-1,-1.116782639E1,-7.311096497E0,-2.594853973E0,1.359800520E1
9.491230416E-1,-1.101274887E1,-7.927664337E0,-2.639311523E0,1.382369216E1
9.591900416E-1,-1.136346954E1,-8.686885529E0,-2.896327057E0,1.459380453E1
9.692580416E-1,-1.188483536E1,-9.521250458E0,-2.984044647E0,1.551799099E1
9.793250416E-1,-1.231309479E1,-1.023152344E1,-2.896776123E0,1.626922515E1
9.893920416E-1,-1.264076340E1,-1.075393707E1,-2.667453003E0,1.680926433E1
9.994590416E-1,-1.291649002E1,-1.104388412E1,-2.153421936E0,1.713009974E1
1.009526042E0,-1.290002426E1,-1.078761703E1,-1.522483978E0,1.688494195E1
1.019593042E0,-1.312246170E1,-1.032702484E1,-1.160686340E0,1.673898551E1
1.029660042E0,-1.364667160E1,-9.811496887E0,-1.028660889E0,1.683909915E1
1.039727042E0,-1.417028275E1,-9.377698975E0,-1.029259644E0,1.702344050E1
1.049794042E0,-1.448492844E1,-8.960217133E0,-1.204545135E0,1.707482275E1
1.059861042E0,-1.459450058E1,-8.434959412E0,-1.381028137E0,1.691316724E1
1.069928042E0,-1.452489532E1,-7.865842896E0,-1.565744019E0,1.659203493E1
1.079995042E0,-1.436023773E1,-7.442074127E0,-1.857187958E0,1.628035756E1
1.090063042E0,-1.403735916E1,-7.082821198E0,-2.242187347E0,1.588210353E1
1.100130042E0,-1.347961899E1,-6.744524689E0,-2.723586273E0,1.531687512E1
1.110197042E0,-1.283461029E1,-6.394552460E0,-3.138673096E0,1.467885524E1
1.120264042E0,-1.225366837E1,-6.168073425E0,-3.425776062E0,1.413978288E1
1.130331042E0,-1.160177399E1,-5.749843140E0,-3.603306885E0,1.344044926E1
1.140398042E0,-1.090991272E1,-5.218597870E0,-3.495980072E0,1.258895690E1
1.150465042E0,-1.042552002E1,-4.894970856E0,-3.037932587E0,1.191139126E1
1.160532042E0,-9.944420471E0,-4.646487579E0,-2.474055176E0,1.125176850E1
1.170599042E0,-9.426946564E0,-4.353846130E0,-1.958377533E0,1.056686047E1
1.180666042E0,-9.073082428E0,-4.159250793E0,-1.647174683E0,1.011599606E1
1.190733042E0,-8.589737549E0,-3.915258179E0,-1.347797241E0,9.535690597E0
1.200801042E0,-8.207881622E0,-3.662284241E0,-1.097218323E0,9.054586387E0
1.210868042E0,-7.995922394E0,-3.595373383E0,-8.976832581E-1,8.812906440E0
1.220935042E0,-7.704777832E0,-3.568130035E0,-8.569679260E-1,8.534022933E0
1.231002042E0,-7.654183044E0,-3.785927124E0,-9.514215088E-1,8.592145550E0
1.241069042E0,-7.682623901E0,-3.935316467E0,-1.029858398E0,8.693102670E0
1.251136042E0,-7.731871490E0,-3.971690826E0,-1.054557037E0,8.756041075E0
1.261203042E0,-7.784711609E0,-4.036056976E0,-9.508227539E-1,8.820178834E0
1.271270042E0,-7.892188110E0,-4.204157410E0,-8.348139954E-1,8.981007020E0
1.281337042E0,-8.033045197E0,-4.452341309E0,-7.795788574E-1,9.217423797E0
1.291404042E0,-8.148754578E0,-4.662803650E0,-6.313870239E-1,9.409707148E0
1.301471042E0,-8.081993408E0,-4.664150848E0,-2.303709412E-1,9.334130455E0
1.311538042E0,-8.017627258E0,-4.519701233E0,2.145039368E-1,9.206305341E0
1.321606042E0,-7.984096985E0,-4.293521576E0,6.080355835E-1,9.085694220E0
1.331673042E0,-7.948770447E0,-4.034859467E0,9.425898743E-1,8.963900836E0
1.341740042E0,-7.957153015E0,-3.702251129E0,1.154549103E0,8.851888565E0
1.351807042E0,-8.072563019E0,-3.339854736E0,1.162183228E0,8.813147747E0
1.361874042E0,-8.387358398E0,-3.085084534E0,9.413923645E-1,8.986197587E0
1.371941042E0,-8.906329193E0,-2.912343750E0,6.405180359E-1,9.392268585E0
1.382008042E0,-9.440867615E0,-2.799777832E0,3.806584167E-1,9.854625211E0
1.392075042E0,-9.874815216E0,-2.598895569E0,2.046244812E-1,1.021313394E1
1.402142042E0,-1.000624191E1,-2.264640656E0,-2.014810181E-1,1.026128984E1
1.412209042E0,-1.051218979E1,-2.393971710E0,-7.002438354E-1,1.080405369E1
1.422276042E0,-1.097577576E1,-2.643652496E0,-1.233584747E0,1.135686063E1
1.432343042E0,-1.127739853E1,-2.764151917E0,-1.576521606E0,1.171775037E1
1.442411042E0,-1.147962799E1,-2.848576355E0,-1.793719940E0,1.196301288E1
1.452478042E0,-1.157333313E1,-2.931054840E0,-1.817819824E0,1.207632358E1
1.462545042E0,-1.165551224E1,-3.101849670E0,-1.663939819E0,1.217543152E1
1.472612208E0,-1.195249466E1,-3.548820190E0,-1.469194794E0,1.255447278E1
1.482679208E0,-1.229857498E1,-4.140090637E0,-1.320553894E0,1.304374025E1
1.492746208E0,-1.271141647E1,-4.846621399E0,-1.241368561E0,1.366055796E1
1.502813208E0,-1.290915527E1,-5.356760559E0,-1.019529877E0,1.401358679E1
1.512880208E0,-1.306887314E1,-5.646108856E0,-7.596702576E-1,1.425661563E1
1.522947208E0,-1.335028793E1,-5.800737305E0,-5.688171387E-1,1.456716493E1
1.533014208E0,-1.379770752E1,-5.882317657E0,-5.442681885E-1,1.500915126E1
1.543081208E0,-1.425545563E1,-5.937103729E0,-7.487429810E-1,1.546052496E1
1.553148208E0,-1.462862961E1,-5.870043182E0,-9.334588623E-1,1.579004612E1
1.563216208E0,-1.492695923E1,-5.802383881E0,-1.128652954E0,1.605476963E1
1.573283208E0,-1.518068161E1,-5.837560730E0,-1.351838837E0,1.632046806E1
1.583350208E0,-1.529429535E1,-6.056555328E0,-1.640438690E0,1.653143587E1
1.593417208E0,-1.514550476E1,-6.448141022E0,-1.895508270E0,1.656978541E1
1.603484208E0,-1.488804016E1,-6.888974304E0,-2.043400726E0,1.653140022E1
1.613551208E0,-1.460512848E1,-7.386689301E0,-2.126028900E0,1.650433142E1
1.623618208E0,-1.437356003E1,-7.920479279E0,-2.238295441E0,1.656330844E1
1.633685208E0,-1.421773407E1,-8.471483459E0,-2.359393616E0,1.671755761E1
1.643752208E0,-1.404529266E1,-8.969198456E0,-2.445015564E0,1.684324399E1
1.653819208E0,-1.390533371E1,-9.447603607E0,-2.474653931E0,1.699233449E1
1.663886208E0,-1.366912491E1,-9.797276459E0,-2.446362762E0,1.699459598E1
1.673954208E0,-1.325239151E1,-9.951755219E0,-2.243384857E0,1.672411697E1
1.684021208E0,-1.275886780E1,-1.002046234E1,-1.985920258E0,1.634448691E1
1.694088208E0,-1.217687805E1,-1.005219635E1,-1.850901031E0,1.589807678E1
1.704155208E0,-1.146001877E1,-9.932744751E0,-1.834884338E0,1.527606785E1
1.714222208E0,-1.058553726E1,-9.658215637E0,-1.936073914E0,1.445970645E1
1.724289208E0,-9.760752411E0,-9.316176910E0,-2.194137268E0,1.367032107E1
1.734356208E0,-9.032965851E0,-8.968599701E0,-2.524799652E0,1.297709004E1
1.744423208E0,-8.369246063E0,-8.549321594E0,-2.847229156E0,1.229804429E1
1.754490208E0,-7.843090210E0,-8.092022552E0,-3.167263641E0,1.170582983E1
1.764557208E0,-7.398963776E0,-7.644303589E0,-3.382066956E0,1.116326203E1
1.774624208E0,-7.043153687E0,-7.261699219E0,-3.497626648E0,1.070381621E1
1.784691208E0,-6.834188232E0,-6.883136444E0,-3.535348206E0,1.032387442E1
1.794758208E0,-6.726412354E0,-6.594686279E0,-3.485801239E0,1.004416848E1
1.804826208E0,-6.630461884E0,-6.387217712E0,-3.233725433E0,9.757897062E0
1.814893208E0,-6.548881531E0,-6.260431366E0,-2.864892426E0,9.502023932E0
1.824960208E0,-6.504423981E0,-6.276897125E0,-2.520458679E0,9.384011978E0
1.835027208E0,-6.457421722E0,-6.313720551E0,-2.247276764E0,9.306536163E0
1.845094208E0,-6.446195068E0,-6.433022461E0,-2.056273956E0,9.336245039E0
1.855161208E0,-6.414760437E0,-6.570436707E0,-1.904489594E0,9.377999285E0
1.865228208E0,-6.260431366E0,-6.648574219E0,-1.780247955E0,9.304075602E0
1.875295208E0,-6.105054474E0,-6.678062897E0,-1.656006317E0,9.198400464E0
1.885362208E0,-5.932164001E0,-6.617888031E0,-1.450783081E0,9.005097627E0
1.895429208E0,-5.778433685E0,-6.367458801E0,-1.204994202E0,8.682559442E0
1.905496208E0,-5.783523102E0,-6.119723969E0,-9.851014709E-1,8.477652141E0
1.915564208E0,-5.938600616E0,-6.031407623E0,-9.361532593E-1,8.515940237E0
1.925631208E0,-6.159241791E0,-6.158343658E0,-1.026265869E0,8.770101350E0
1.935698208E0,-6.340963898E0,-6.432124329E0,-1.204844513E0,9.112173003E0
1.945765208E0,-6.428232422E0,-6.763535156E0,-1.437460785E0,9.441073741E0
1.955832208E0,-6.458020477E0,-7.074438629E0,-1.613943787E0,9.713831631E0
1.965899208E0,-6.415359192E0,-7.180118866E0,-1.702260132E0,9.777966560E0
1.975966208E0,-6.157295837E0,-7.165149994E0,-1.683998108E0,9.596224054E0
1.986033208E0,-5.878276062E0,-7.112609253E0,-1.680405579E0,9.379077927E0
1.996100208E0,-5.755681000E0,-7.098837891E0,-1.805096283E0,9.315564168E0
2.006167208E0,-5.804180145E0,-7.048991547E0,-1.998793488E0,9.347297170E0
2.016234208E0,-6.137836304E0,-7.234455872E0,-2.419269104E0,9.790977951E0
2.026301208E0,-6.602320404E0,-7.595954132E0,-2.968027954E0,1.049277579E1
2.036369208E0,-6.915169830E0,-7.921227722E0,-3.427722015E0,1.105959767E1
2.046436208E0,-7.033872986E0,-8.180488586E0,-3.763473816E0,1.142626351E1
2.056503208E0,-7.162754974E0,-8.491990814E0,-4.114793243E0,1.184696122E1
2.066570208E0,-7.233707428E0,-8.942853241E0,-4.418062592E0,1.232154310E1
2.076637208E0,-7.213050385E0,-9.329648895E0,-4.541555786E0,1.263709513E1
2.086704208E0,-7.098837891E0,-9.508676605E0,-4.401596832E0,1.265632193E1
2.096771208E0,-7.094945984E0,-9.457483063E0,-3.903582458E0,1.245071084E1
2.106838208E0,-7.299121399E0,-9.098529510E0,-3.087928619E0,1.206630497E1
2.116905208E0,-7.789202271E0,-8.548872528E0,-2.374961243E0,1.180658013E1
2.126972208E0,-8.413703613E0,-7.928412781E0,-1.887874146E0,1.171384679E1
2.137039208E0,-9.066346436E0,-7.367978210E0,-1.662143555E0,1.180035855E1
2.147106208E0,-9.670789490E0,-6.940916290E0,-1.732946320E0,1.202928058E1
2.157174208E0,-1.023302032E1,-6.658753052E0,-1.967658234E0,1.236630002E1
2.167241208E0,-1.057446030E1,-6.433770905E0,-2.408341827E0,1.261002494E1
2.177308208E0,-1.068283493E1,-6.210285645E0,-3.007545776E0,1.271754463E1
2.187375208E0,-1.060215271E1,-6.015390930E0,-3.671115875E0,1.273057979E1
2.197442208E0,-1.042043060E1,-5.865402832E0,-4.320914612E0,1.271450461E1
2.207509208E0,-1.018556900E1,-5.790558472E0,-4.875211945E0,1.269031421E1
2.217576208E0,-9.834399261E0,-5.656886444E0,-5.275479584E0,1.251185270E1
2.227643208E0,-9.417067108E0,-5.445675659E0,-5.537883911E0,1.220674791E1
2.237710208E0,-9.087602234E0,-5.259013824E0,-5.587430878E0,1.189374309E1
2.247777208E0,-8.897647247E0,-5.209317169E0,-5.294789429E0,1.159050935E1
2.257844208E0,-8.423732758E0,-4.941823425E0,-4.853507080E0,1.090584354E1
2.267911208E0,-8.322243805E0,-5.062472534E0,-4.348607025E0,1.066764984E1
2.277978208E0,-8.182434540E0,-5.143454132E0,-3.614982605E0,1.031869443E1
2.288046208E0,-8.018226013E0,-5.129832458E0,-2.887345734E0,9.947054581E0
2.298113208E0,-8.032895508E0,-5.104235687E0,-2.345771942E0,9.802207822E0
2.308180208E0,-8.155939636E0,-5.021008759E0,-1.972148895E0,9.778509680E0
2.318247208E0,-8.250692596E0,-4.849764862E0,-1.772164764E0,9.733176023E0
2.328314208E0,-8.362210693E0,-4.674629059E0,-1.666484528E0,9.723985561E0
2.338381208E0,-8.537196808E0,-4.643044739E0,-1.721270599E0,9.869365038E0
2.348448208E0,-8.698411560E0,-4.630021820E0,-1.803599396E0,1.001760633E1
2.358515208E0,-8.800648956E0,-4.584516449E0,-1.806144104E0,1.008619699E1
2.368582208E0,-8.800948334E0,-4.629872131E0,-1.775158539E0,1.010166300E1
2.378649208E0,-8.736282806E0,-4.793481903E0,-1.716181183E0,1.011164595E1
2.388716208E0,-8.668473816E0,-4.959337006E0,-1.526675262E0,1.010288074E1
2.398784208E0,-8.636739807E0,-5.101092224E0,-1.242416382E0,1.010732481E1
2.408851208E0,-8.719517670E0,-5.178780670E0,-9.674382019E-1,1.018752641E1
2.418918208E0,-8.980874176E0,-5.180427246E0,-7.393125916E-1,1.039420562E1
2.428985208E0,-9.291029205E0,-5.106481018E0,-5.794450378E-1,1.061768000E1
2.439052208E0,-9.584419098E0,-4.906347198E0,-4.622387695E-1,1.077715162E1
2.449119208E0,-9.791737976E0,-4.630321198E0,-3.568579102E-1,1.083722079E1
2.459186208E0,-9.958790588E0,-4.262685699E0,-3.097059631E-1,1.083715448E1
2.469253333E0,-1.000100281E1,-3.801045685E0,-3.043171692E-1,1.070329923E1
2.479320333E0,-1.015308655E1,-3.387006683E0,-3.079096985E-1,1.070755757E1
2.489387333E0,-1.034468811E1,-3.085533600E0,-3.287164307E-1,1.080005297E1
2.499454333E0,-1.057745407E1,-2.890638885E0,-4.155358887E-1,1.097319452E1
2.509521333E0,-1.091380463E1,-2.802921295E0,-5.706134033E-1,1.128242433E1
2.519588333E0,-1.119911133E1,-2.728076935E0,-7.104226685E-1,1.154847170E1
2.529656333E0,-1.146720383E1,-2.609224091E0,-7.460485840E-1,1.178394681E1
2.539723333E0,-1.184441940E1,-2.487676849E0,-6.758445740E-1,1.212169844E1
2.549790333E0,-1.241697876E1,-2.489772491E0,-7.595205688E-1,1.268689088E1
2.559857333E0,-1.325418777E1,-2.827320557E0,-1.078656921E0,1.359524681E1
2.569924333E0,-1.426877792E1,-3.531755676E0,-1.509311371E0,1.477664855E1
2.579991333E0,-1.512559616E1,-4.325854340E0,-1.744472351E0,1.582845093E1
2.590058333E0,-1.562810120E1,-4.906496887E0,-1.578168182E0,1.645605887E1
2.600125333E0,-1.578781906E1,-5.199288025E0,-1.055754547E0,1.665540286E1
2.610192333E0,-1.601339996E1,-5.426216125E0,-5.378315735E-1,1.691632533E1
2.620259333E0,-1.640528503E1,-5.656886444E0,-2.233355713E-1,1.735464261E1
2.630326333E0,-1.661380142E1,-5.668711853E0,1.020877075E-1,1.755457529E1
2.640393333E0,-1.647833313E1,-5.364993439E0,6.343807983E-1,1.734131069E1
2.650461333E0,-1.623523865E1,-5.087919617E0,1.012045441E0,1.704388852E1
2.660528333E0,-1.617072281E1,-5.098996582E0,1.052162018E0,1.698820436E1
2.670595333E0,-1.594125000E1,-5.453908539E0,6.339317322E-1,1.686032145E1
2.680662333E0,-1.543021271E1,-6.014343109E0,-1.499880981E-1,1.656159061E1
2.690729333E0,-1.488489670E1,-6.433770905E0,-8.500822449E-1,1.623810942E1
2.700796333E0,-1.449286194E1,-6.907685394E0,-1.454974365E0,1.612067353E1
2.710863333E0,-1.426608353E1,-7.522307281E0,-1.952689362E0,1.624559146E1
2.720930333E0,-1.401505554E1,-8.077652435E0,-2.255359955E0,1.633269418E1
2.730997333E0,-1.376806915E1,-8.513845367E0,-2.315983887E0,1.635264726E1
2.741064333E0,-1.346210541E1,-8.858728180E0,-2.279310150E0,1.627576732E1
2.751131333E0,-1.313144302E1,-9.102720795E0,-2.203567657E0,1.612916713E1
2.761198333E0,-1.275527527E1,-9.254654846E0,-2.097138977E0,1.589791418E1
2.771266333E0,-1.227881607E1,-9.342522125E0,-2.005529480E0,1.555873363E1
2.781333333E0,-1.173140442E1,-9.286688232E0,-1.913021851E0,1.508403396E1
2.791400333E0,-1.114701965E1,-9.192234650E0,-1.836830292E0,1.456458618E1
2.801467333E0,-1.062999481E1,-9.142238617E0,-1.877994690E0,1.414581849E1
2.811534333E0,-1.009440857E1,-9.033564606E0,-1.944606171E0,1.368516960E1
2.821601333E0,-9.487720184E0,-8.818910980E0,-1.968256989E0,1.310206322E1
2.831668333E0,-8.933871918E0,-8.580307159E0,-1.990710297E0,1.254586250E1
2.841735333E0,-8.399034119E0,-8.297096100E0,-2.023342438E0,1.197829255E1
2.851802333E0,-7.907007294E0,-8.010591888E0,-2.121388550E0,1.145384809E1
2.861869333E0,-7.443121948E0,-7.708819427E0,-2.250420227E0,1.094944531E1
2.871936333E0,-6.958280182E0,-7.379803619E0,-2.328108673E0,1.040669278E1
2.882003333E0,-6.584806824E0,-7.054679718E0,-2.400707703E0,9.944424785E0
2.892070333E0,-6.401587830E0,-6.834038544E0,-2.475701752E0,9.685737386E0
2.902138333E0,-6.318211212E0,-6.672374725E0,-2.451003113E0,9.510404495E0
2.912205333E0,-6.347849579E0,-6.592590637E0,-2.368374939E0,9.453393329E0
2.922272333E0,-6.415359192E0,-6.589297485E0,-2.249671783E0,9.467665924E0
2.932339333E0,-6.399342499E0,-6.613846436E0,-2.113754425E0,9.442590050E0
2.942406333E0,-6.245462494E0,-6.595883789E0,-2.030826874E0,9.307832321E0
2.952473333E0,-6.147566071E0,-6.611601105E0,-2.045795746E0,9.256949713E0
2.962540333E0,-6.032904510E0,-6.609804840E0,-2.085762634E0,9.188898880E0
2.972607333E0,-5.917793884E0,-6.520440674E0,-2.101330261E0,9.052735493E0
2.982674333E0,-5.945785675E0,-6.421795807E0,-2.142045593E0,9.010004884E0
2.992741333E0,-6.198909302E0,-6.468947754E0,-2.266137543E0,9.241706603E0
3.002808333E0,-6.480174408E0,-6.630012817E0,-2.433639221E0,9.585005486E0
3.012875333E0,-6.776707764E0,-6.878196716E0,-2.678380280E0,1.002033328E1
3.022943333E0,-7.076683960E0,-7.293732605E0,-2.949017487E0,1.058180964E1
3.033010333E0,-7.306456146E0,-7.797435150E0,-3.158581696E0,1.114275256E1
3.043077333E0,-7.289092255E0,-8.187673645E0,-3.143163757E0,1.140387408E1
3.053144333E0,-7.029232635E0,-8.302335205E0,-2.914738770E0,1.126208610E1
3.063211333E0,-6.655908966E0,-8.182284851E0,-2.642904053E0,1.087363101E1
3.073278333E0,-6.404880981E0,-7.989186401E0,-2.494113464E0,1.053898485E1
3.083345333E0,-6.308780823E0,-7.821385345E0,-2.553390198E0,1.036795957E1
3.093412333E0,-6.483317871E0,-7.945776672E0,-2.937641144E0,1.066763859E1
3.103479333E0,-6.735693054E0,-8.333171082E0,-3.457510071E0,1.125902647E1
3.113546333E0,-6.855743408E0,-8.568032684E0,-3.737427979E0,1.159227198E1
3.123613333E0,-6.776857452E0,-8.583450623E0,-3.765270081E0,1.156627340E1
3.133680333E0,-6.728807373E0,-8.641230469E0,-3.812272339E0,1.159660006E1
3.143747333E0,-6.659351807E0,-8.741970978E0,-3.974534912E0,1.168614354E1
3.153815333E0,-6.378535767E0,-8.737330627E0,-4.037703552E0,1.154684870E1
3.163882333E0,-6.035149841E0,-8.481063538E0,-3.903133392E0,1.111692055E1
3.173949333E0,-5.930218048E0,-8.117469635E0,-3.584296417E0,1.067276816E1
3.184016333E0,-6.074667664E0,-7.709867249E0,-3.116369476E0,1.029832020E1
3.194083333E0,-6.485114136E0,-7.394173737E0,-2.721340942E0,1.020471495E1
3.204150333E0,-7.047644348E0,-7.191195831E0,-2.467618561E0,1.036685727E1
3.214217333E0,-7.489675140E0,-6.995852051E0,-2.293231201E0,1.050219448E1
3.224284333E0,-7.886499939E0,-6.854545898E0,-2.226020966E0,1.068348492E1
3.234351333E0,-8.193511505E0,-6.839277649E0,-2.272723846E0,1.091213193E1
3.244418333E0,-8.361462250E0,-6.849905548E0,-2.370620270E0,1.106594313E1
3.254485333E0,-8.530760193E0,-6.816075897E0,-2.514171753E0,1.120508008E1
3.264552333E0,-8.827143860E0,-6.787784729E0,-2.841091919E0,1.149192297E1
3.274619333E0,-9.219927063E0,-6.811734924E0,-3.285517731E0,1.192482346E1
3.284687333E0,-9.516759796E0,-6.723568268E0,-3.635190582E0,1.220613362E1
3.294754333E0,-9.646689606E0,-6.523883514E0,-3.862567749E0,1.226943789E1
3.304821333E0,-9.749076691E0,-6.335575104E0,-4.021088104E0,1.230256712E1
3.314888333E0,-9.904004517E0,-6.186634827E0,-3.978127441E0,1.233650088E1
3.324955333E0,-9.729018402E0,-5.783822479E0,-3.832480316E0,1.194965719E1
3.335022333E0,-9.714797974E0,-5.619015198E0,-3.617976379E0,1.179153868E1
3.345089333E0,-9.699230347E0,-5.445825348E0,-3.303181000E0,1.160358082E1
3.355156333E0,-9.664652252E0,-5.277724915E0,-2.935695190E0,1.139641126E1
3.365223333E0,-9.559271393E0,-5.091961212E0,-2.516267395E0,1.111932283E1
3.375290333E0,-9.439370728E0,-4.905299377E0,-2.081122284E0,1.083949960E1
3.385357333E0,-9.347761230E0,-4.729265442E0,-1.710343323E0,1.061470046E1
3.395424333E0,-9.265432434E0,-4.580175476E0,-1.459165649E0,1.043817082E1
3.405492333E0,-9.212592316E0,-4.430187378E0,-1.295256500E0,1.030417909E1
3.415559333E0,-9.178163910E0,-4.315974884E0,-1.263971558E0,1.022076103E1
3.425626333E0,-9.180409241E0,-4.260290680E0,-1.374890900E0,1.021373171E1
3.435693333E0,-9.187743988E0,-4.235741730E0,-1.503174133E0,1.022818068E1
3.445760333E0,-9.098529510E0,-4.212539978E0,-1.553020477E0,1.014596496E1
3.455827333E0,-8.993448029E0,-4.226461029E0,-1.575922852E0,1.006124312E1
3.465894333E0,-9.056766357E0,-4.274062042E0,-1.579515381E0,1.013841664E1
3.475961417E0,-9.210047607E0,-4.320615234E0,-1.541344757E0,1.028923887E1
3.486028417E0,-9.434730377E0,-4.302502899E0,-1.467997284E0,1.047285465E1
3.496095417E0,-9.652527466E0,-4.204157410E0,-1.380429382E0,1.061846558E1
3.506162417E0,-9.821226654E0,-4.028871918E0,-1.236578522E0,1.068725542E1
3.516229417E0,-1.006072861E1,-3.883973236E0,-1.182241516E0,1.084901854E1
3.526296417E0,-1.029948212E1,-3.718567200E0,-1.138532410E0,1.100923839E1
3.536364417E0,-1.052176987E1,-3.465293884E0,-1.038839722E0,1.112632423E1
3.546431417E0,-1.066367477E1,-3.056344299E0,-8.364605713E-1,1.112451646E1
3.556498417E0,-1.079315552E1,-2.598745880E0,-6.197113037E-1,1.111889060E1
3.566565417E0,-1.101559296E1,-2.228116608E0,-5.352868652E-1,1.125141430E1
3.576632417E0,-1.140029297E1,-1.978286133E0,-6.376739502E-1,1.158822350E1
3.586699417E0,-1.188468567E1,-1.827250214E0,-8.080197144E-1,1.205145189E1
3.596766417E0,-1.241353592E1,-1.716031494E0,-9.481283569E-1,1.256740170E1
3.606833417E0,-1.295166687E1,-1.645977173E0,-1.049916687E0,1.309798613E1
3.616900417E0,-1.339983490E1,-1.581161957E0,-1.042282562E0,1.353299676E1
3.626967417E0,-1.394440247E1,-1.690135345E0,-1.116528168E0,1.409076126E1
3.637034417E0,-1.471290436E1,-2.104773102E0,-1.384321289E0,1.492702147E1
3.647101417E0,-1.552511536E1,-2.802322540E0,-1.667382660E0,1.586387038E1
3.657168417E0,-1.624227402E1,-3.628604279E0,-1.817221069E0,1.674158077E1
3.667236417E0,-1.673489960E1,-4.386328583E0,-1.708547058E0,1.738435722E1
3.677303417E0,-1.686288345E1,-4.899611206E0,-1.312470703E0,1.760924779E1
3.687370417E0,-1.693682968E1,-5.288951569E0,-9.268725586E-1,1.776761945E1
3.697437417E0,-1.699011887E1,-5.608087921E0,-5.969586182E-1,1.790170799E1
3.707504417E0,-1.683040100E1,-5.774841156E0,-2.716850281E-1,1.779564556E1
3.717571417E0,-1.639031616E1,-5.723348236E0,7.244934082E-2,1.736100308E1
3.727638417E0,-1.574111618E1,-5.606441345E0,4.275109863E-1,1.671519335E1
3.737705417E0,-1.513367935E1,-5.606740723E0,4.213737488E-1,1.614439061E1
3.747772417E0,-1.464015564E1,-5.892047424E0,-4.595443726E-2,1.578139702E1
3.757839417E0,-1.421129745E1,-6.321803741E0,-6.539900208E-1,1.556771919E1
3.767906417E0,-1.365954483E1,-6.645131378E0,-1.124461670E0,1.523172183E1
3.777973417E0,-1.313937653E1,-7.007378082E0,-1.489702148E0,1.496548615E1
3.788040417E0,-1.285062698E1,-7.549700317E0,-1.834584961E0,1.501673369E1
3.798108417E0,-1.260304184E1,-8.138126678E0,-2.051633606E0,1.514182849E1
3.808175417E0,-1.232477051E1,-8.578510895E0,-2.136357422E0,1.516755881E1
3.818242417E0,-1.216190918E1,-8.964558105E0,-2.203417969E0,1.526860792E1
3.828309417E0,-1.203242844E1,-9.330547028E0,-2.210303650E0,1.538583388E1
3.838376417E0,-1.184846100E1,-9.606722717E0,-2.210752716E0,1.541306514E1
3.848443417E0,-1.148351990E1,-9.722881165E0,-2.087109833E0,1.519084181E1
3.858510417E0,-1.093476105E1,-9.673483887E0,-1.866318970E0,1.471830276E1
3.868577417E0,-1.036384827E1,-9.519603882E0,-1.655706940E0,1.416945921E1
3.878644417E0,-9.872869263E0,-9.351802826E0,-1.560504913E0,1.368813132E1
3.888711417E0,-9.385782166E0,-9.140142975E0,-1.505718842E0,1.318720250E1
3.898778417E0,-8.919950867E0,-8.786578217E0,-1.456471252E0,1.260518896E1
3.908845417E0,-8.511150970E0,-8.430019684E0,-1.438658295E0,1.206543246E1
3.918912417E0,-8.182733917E0,-8.026009827E0,-1.467099152E0,1.155536014E1
3.928980417E0,-7.967780914E0,-7.632627869E0,-1.569186859E0,1.114472468E1
3.939047417E0,-7.810607758E0,-7.254963226E0,-1.625918884E0,1.078349188E1
3.949114417E0,-7.619604950E0,-6.916666718E0,-1.622625732E0,1.041784874E1
3.959181417E0,-7.526049500E0,-6.689139862E0,-1.613345032E0,1.019749456E1
3.969248417E0,-7.451953583E0,-6.549031219E0,-1.613943787E0,1.005118086E1
3.979315417E0,-7.356003113E0,-6.454427948E0,-1.590891724E0,9.914704151E0
3.989382417E0,-7.282955017E0,-6.369853821E0,-1.584006042E0,9.804363652E0
3.999449417E0,-7.160060577E0,-6.302493896E0,-1.569186859E0,9.666966649E0
4.009516417E0,-7.025340729E0,-6.215674438E0,-1.524280243E0,9.503338957E0
4.019583417E0,-6.869365082E0,-6.191724243E0,-1.524429932E0,9.372807069E0
4.029650417E0,-6.756050720E0,-6.255791016E0,-1.566342773E0,9.339837913E0
4.039717417E0,-6.643335114E0,-6.302643585E0,-1.628463593E0,9.301027431E0
4.049784417E0,-6.532715149E0,-6.354585571E0,-1.683998108E0,9.267846278E0
4.059852417E0,-6.353238373E0,-6.382128296E0,-1.717977448E0,9.167695780E0
4.069919417E0,-6.215375061E0,-6.321654053E0,-1.649719391E0,9.017525779E0
4.079986417E0,-6.130501556E0,-6.302044830E0,-1.538800049E0,8.925621769E0
4.090053417E0,-6.166875916E0,-6.415508881E0,-1.518891449E0,9.027521475E0
4.100120417E0,-6.284830627E0,-6.745871887E0,-1.643582153E0,9.365214671E0
4.110187417E0,-6.285728760E0,-7.170389099E0,-1.802401886E0,9.704304119E0
4.120254417E0,-6.086193695E0,-7.496710510E0,-1.941612396E0,9.849481249E0
4.130321417E0,-5.763015747E0,-7.756869507E0,-1.957030334E0,9.859581268E0
4.140388417E0,-5.419480133E0,-7.880811768E0,-1.849104767E0,9.741516692E0
4.150455417E0,-5.158572693E0,-7.922874298E0,-1.667382660E0,9.600154911E0
4.160522417E0,-4.978796539E0,-7.915090485E0,-1.517544250E0,9.473120548E0
4.170589417E0,-4.848717041E0,-7.798333282E0,-1.453627167E0,9.297154988E0
4.180656417E0,-4.979544983E0,-7.642956390E0,-1.609004059E0,9.262804364E0
4.190724417E0,-5.475164337E0,-7.796836395E0,-2.143692169E0,9.765423616E0
4.200791417E0,-6.018684082E0,-8.272247772E0,-2.836750946E0,1.061611027E1
4.210858417E0,-6.265670471E0,-8.552465057E0,-3.256927185E0,1.109102609E1
4.220925417E0,-6.202202454E0,-8.513545990E0,-3.337310028E0,1.104922707E1
4.230992417E0,-6.292165375E0,-8.303383026E0,-3.492237854E0,1.098786786E1
4.241059417E0,-6.771468658E0,-8.240663452E0,-3.889212341E0,1.135285403E1
4.251126417E0,-7.266788635E0,-8.202792206E0,-4.257446594E0,1.175660957E1
4.261193417E0,-7.470664673E0,-7.899223480E0,-4.302951965E0,1.169290203E1
4.271260417E0,-7.528444519E0,-7.471712494E0,-4.108805695E0,1.137480763E1
4.281327417E0,-7.620802460E0,-7.085216217E0,-3.718716888E0,1.105014816E1
4.291394417E0,-7.964637451E0,-6.831344147E0,-3.239413605E0,1.098164437E1
4.301461417E0,-8.487051086E0,-6.719376984E0,-2.889740753E0,1.120404681E1
4.311528417E0,-8.889564056E0,-6.667135620E0,-2.730172577E0,1.144241621E1
4.321595417E0,-9.045539703E0,-6.522835693E0,-2.618205414E0,1.145531203E1
4.331663417E0,-9.193881226E0,-6.389163666E0,-2.699785767E0,1.151684451E1
4.341730417E0,-9.357490997E0,-6.355783081E0,-2.949915619E0,1.169019326E1
4.351797417E0,-9.403295746E0,-6.347400513E0,-3.236270142E0,1.179766539E1
4.361864417E0,-9.503287811E0,-6.347250824E0,-3.556304626E0,1.196859954E1
4.371931417E0,-9.722132721E0,-6.379134521E0,-3.836222534E0,1.224458351E1
4.381998417E0,-9.902357941E0,-6.396199036E0,-4.057462463E0,1.246719923E1
4.392065417E0,-1.000953506E1,-6.314019928E0,-4.195026398E0,1.255610952E1
4.402132417E0,-1.004695724E1,-6.170169067E0,-4.222868500E0,1.252377557E1
4.412199417E0,-9.984986115E0,-6.034551086E0,-4.064946899E0,1.235473787E1
4.422266417E0,-9.874815216E0,-5.854625244E0,-3.845802612E0,1.210697361E1
4.432333417E0,-9.786049805E0,-5.658982086E0,-3.569327545E0,1.185457499E1
4.442400417E0,-9.649234314E0,-5.480553131E0,-3.217559052E0,1.155408463E1
4.452467417E0,-9.516310730E0,-5.269342346E0,-2.802322540E0,1.123294931E1
4.462535417E0,-9.350455627E0,-5.049748993E0,-2.397264862E0,1.089393704E1
4.472602792E0,-9.205107880E0,-4.847968597E0,-2.045795746E0,1.060292841E1
4.482669792E0,-9.081015930E0,-4.692591705E0,-1.704804840E0,1.036299314E1
4.492736792E0,-9.019194489E0,-4.594545593E0,-1.447040863E0,1.022495211E1
4.502803792E0,-8.976383514E0,-4.487368469E0,-1.264869690E0,1.011493115E1
4.512870792E0,-8.893905029E0,-4.404590607E0,-1.238674164E0,1.000181377E1
4.522937792E0,-8.801098022E0,-4.359085236E0,-1.346150665E0,9.913277566E0
4.533004792E0,-8.760981445E0,-4.324806519E0,-1.544188843E0,9.891575531E0
4.543071792E0,-8.735684052E0,-4.255350952E0,-1.675914917E0,9.860470495E0
4.553138792E0,-8.741372223E0,-4.222269745E0,-1.762135620E0,9.866320088E0
4.563205792E0,-8.841663666E0,-4.225263519E0,-1.813927917E0,9.965851829E0
4.573272792E0,-8.976982269E0,-4.294719086E0,-1.776805115E0,1.010880107E1
4.583339792E0,-9.286688232E0,-4.384682007E0,-1.675914917E0,1.040560933E1
4.593407792E0,-9.737550659E0,-4.480183411E0,-1.510059814E0,1.082461163E1
4.603474792E0,-1.013527359E1,-4.446353760E0,-1.317410431E0,1.114582445E1
4.613541792E0,-1.050171158E1,-4.289180603E0,-1.149160309E0,1.140191149E1
4.623608792E0,-1.075438614E1,-4.068539429E0,-9.978250122E-1,1.154146824E1
4.633675792E0,-1.088775879E1,-3.725752258E0,-9.195378113E-1,1.154426572E1
4.643742792E0,-1.086515579E1,-3.322790222E0,-8.554710388E-1,1.139405002E1
4.653809792E0,-1.085617447E1,-2.965483246E0,-7.797285461E-1,1.128089498E1
4.663876792E0,-1.096469879E1,-2.803070984E0,-8.937913513E-1,1.135256313E1
4.673943792E0,-1.116932327E1,-2.857108612E0,-1.176104279E0,1.158879085E1
4.684010792E0,-1.141690842E1,-3.020119629E0,-1.512754211E0,1.190610539E1
4.694077792E0,-1.165715881E1,-3.163521423E0,-1.762285309E0,1.220667313E1
4.704144792E0,-1.191896439E1,-3.367996216E0,-1.741478577E0,1.250751207E1
4.714211792E0,-1.194545929E1,-3.175346832E0,-1.551523590E0,1.245728905E1
4.724278792E0,-1.241114090E1,-3.260070648E0,-1.550026703E0,1.292544242E1
4.734346792E0,-1.323472824E1,-3.376528473E0,-1.603914642E0,1.375250953E1
4.744413792E0,-1.415351761E1,-3.461701355E0,-1.596430206E0,1.465789979E1
4.754480792E0,-1.513817001E1,-3.699107666E0,-1.564097443E0,1.566186418E1
4.764547792E0,-1.597118774E1,-3.911965027E0,-1.466650085E0,1.650858476E1
4.774614792E0,-1.653865768E1,-3.945495300E0,-1.284628601E0,1.705122875E1
4.784681792E0,-1.681543213E1,-3.803590393E0,-9.909393311E-1,1.726870054E1
4.794748792E0,-1.703412735E1,-3.684587860E0,-8.797206116E-1,1.745026047E1
4.804815792E0,-1.715223175E1,-3.701951752E0,-9.196875000E-1,1.757126421E1
4.814882792E0,-1.696212708E1,-3.678450623E0,-7.890092468E-1,1.737432846E1
4.824949792E0,-1.647429153E1,-3.588038635E0,-4.396357727E-1,1.686622609E1
4.835016792E0,-1.595472198E1,-3.760030975E0,-2.299218750E-1,1.639340876E1
4.845083792E0,-1.554217987E1,-4.333787842E0,-3.179388428E-1,1.613822039E1
4.855150792E0,-1.500569550E1,-5.047503662E0,-6.709048462E-1,1.584608166E1
4.865218792E0,-1.439152267E1,-5.732628937E0,-1.153351593E0,1.553412950E1
4.875285792E0,-1.383887192E1,-6.385122070E0,-1.523232422E0,1.531680113E1
4.885352792E0,-1.342752731E1,-6.938072205E0,-1.789378967E0,1.521963248E1
4.895419792E0,-1.317889435E1,-7.512278137E0,-2.025138702E0,1.530420745E1
4.905486792E0,-1.304522232E1,-8.086035004E0,-2.226320343E0,1.550865209E1
4.915553792E0,-1.287936722E1,-8.503516846E0,-2.333796844E0,1.560879580E1
4.925620792E0,-1.259959900E1,-8.770112457E0,-2.395019531E0,1.553708100E1
4.935687792E0,-1.234123627E1,-8.971743164E0,-2.443818054E0,1.545220161E1
4.945754792E0,-1.200728073E1,-9.119485931E0,-2.443818054E0,1.527455600E1
4.955821792E0,-1.153007309E1,-9.127569122E0,-2.337988129E0,1.489030866E1
4.965888792E0,-1.101948486E1,-9.108558655E0,-2.213596802E0,1.446702797E1
4.975955792E0,-1.043869263E1,-9.046587524E0,-2.092947693E0,1.397095128E1
4.986022792E0,-9.820777588E0,-8.842262421E0,-2.061513062E0,1.337471918E1
4.996089792E0,-9.323361969E0,-8.633296967E0,-2.121837616E0,1.288258863E1
5.006157792E0,-8.884025574E0,-8.436605988E0,-2.198927307E0,1.244738978E1
5.016224792E0,-8.494086456E0,-8.205935669E0,-2.301164703E0,1.203254935E1
5.026291792E0,-8.107590179E0,-7.968978424E0,-2.378104706E0,1.161434534E1
5.036358792E0,-7.725734253E0,-7.664661255E0,-2.398013306E0,1.114380858E1
5.046425792E0,-7.431446228E0,-7.358697510E0,-2.528392181E0,1.075962774E1
5.056492792E0,-7.261998596E0,-7.107819214E0,-2.687660980E0,1.051100562E1
5.066559792E0,-7.123985596E0,-6.865922241E0,-2.759960632E0,1.027177890E1
5.076626792E0,-7.022646332E0,-6.684798889E0,-2.722987518E0,1.007068810E1
5.086693792E0,-6.882537689E0,-6.545139313E0,-2.604583740E0,9.848453184E0
5.096760792E0,-6.732699280E0,-6.466702423E0,-2.478845215E0,9.658786333E0
5.106827792E0,-6.611900482E0,-6.466103668E0,-2.352358246E0,9.542605197E0
5.116894792E0,-6.510561218E0,-6.468348999E0,-2.230960693E0,9.444793897E0
5.126961792E0,-6.464756470E0,-6.478677521E0,-2.114353180E0,9.393446013E0
5.137028792E0,-6.512956238E0,-6.439159698E0,-2.025887146E0,9.380063715E0
5.147096792E0,-6.633156281E0,-6.389762421E0,-1.957180023E0,9.415857883E0
5.157163792E0,-6.849157104E0,-6.427633667E0,-2.025887146E0,9.608831684E0
5.167230792E0,-7.111112366E0,-6.589596863E0,-2.200124817E0,9.941391004E0
5.177297792E0,-7.306306458E0,-6.898404694E0,-2.392025757E0,1.032917657E1
5.187364792E0,-7.411238251E0,-7.264243927E0,-2.497256927E0,1.067389265E1
5.197431792E0,-7.381450195E0,-7.544610901E0,-2.470762024E0,1.084027793E1
5.207498792E0,-7.277266846E0,-7.873177643E0,-2.379002838E0,1.098203958E1
5.217565792E0,-7.090006256E0,-8.156987457E0,-2.160307617E0,1.102141380E1
5.227632792E0,-6.718628540E0,-8.185727692E0,-1.837429047E0,1.074812787E1
5.237699792E0,-6.466103668E0,-8.136031036E0,-1.578916626E0,1.051182550E1
5.247766792E0,-6.505920868E0,-8.081843719E0,-1.603465576E0,1.049830015E1
5.257833792E0,-6.685996399E0,-7.993227997E0,-1.803449707E0,1.057575872E1
5.267900792E0,-6.786437531E0,-7.907755737E0,-2.082768860E0,1.062667687E1
5.277967792E0,-7.067702637E0,-8.168812866E0,-2.671943665E0,1.112749779E1
5.288035792E0,-7.330106964E0,-8.542435913E0,-3.245251465E0,1.171474867E1
5.298102792E0,-7.315736847E0,-8.600964203E0,-3.557053070E0,1.183846347E1
5.308169792E0,-7.122937775E0,-8.450227661E0,-3.655248871E0,1.164059424E1
5.318236792E0,-6.787036285E0,-8.269703064E0,-3.731739807E0,1.133038977E1
5.328303792E0,-6.448440399E0,-8.187673645E0,-3.769760742E0,1.108293640E1
5.338370792E0,-6.197711792E0,-7.965834961E0,-3.593726807E0,1.071359092E1
5.348437792E0,-6.296656036E0,-7.552095337E0,-3.202141113E0,1.034097331E1
5.358504792E0,-6.779551849E0,-7.088209991E0,-2.785707092E0,1.019633307E1
5.368571792E0,-7.367379456E0,-6.772666168E0,-2.606978760E0,1.034135510E1
5.378638792E0,-8.002658386E0,-6.493347015E0,-2.653681641E0,1.064181014E1
5.388705792E0,-8.474028168E0,-6.179449768E0,-2.843636627E0,1.086650920E1
5.398772792E0,-8.699758759E0,-5.949527893E0,-3.124901733E0,1.099307489E1
5.408839792E0,-8.793463898E0,-5.933960266E0,-3.502266998E0,1.117151583E1
5.418906792E0,-8.829838257E0,-5.992787933E0,-3.876788177E0,1.135381158E1
5.428973792E0,-8.901090088E0,-6.049819336E0,-4.143832855E0,1.153260896E1
5.439041792E0,-9.059760132E0,-6.116879883E0,-4.357438660E0,1.176786917E1
5.449108792E0,-9.180409241E0,-6.147566071E0,-4.518354034E0,1.193683399E1
5.459175792E0,-9.158105621E0,-6.122118988E0,-4.531227264E0,1.191147598E1
5.469242792E0,-8.996292114E0,-6.002667389E0,-4.402195587E0,1.167666963E1
5.479310417E0,-8.781638489E0,-5.894592133E0,-4.104764099E0,1.134515224E1
5.489377417E0,-8.534951477E0,-5.713768158E0,-3.663182373E0,1.090465260E1
5.499444417E0,-8.274493103E0,-5.469925232E0,-3.184627533E0,1.041773347E1
5.509511417E0,-8.039182434E0,-5.238506470E0,-2.721340942E0,9.973770639E0
5.519578417E0,-7.873027954E0,-5.070705414E0,-2.285148010E0,9.639425501E0
5.529645417E0,-7.826624451E0,-4.856800232E0,-1.828597412E0,9.390864033E0
5.539712417E0,-7.749085693E0,-4.620591431E0,-1.420545959E0,9.133243951E0
5.549779417E0,-7.755222931E0,-4.384083252E0,-1.072369995E0,8.972939656E0
5.559846417E0,-7.837402039E0,-4.215533752E0,-8.735833740E-1,8.941965301E0
5.569913417E0,-8.005502472E0,-4.129762115E0,-8.822653198E-1,9.051043976E0
5.579981417E0,-8.214916992E0,-4.070036316E0,-1.054257660E0,9.228299736E0
5.590048417E0,-8.355774078E0,-3.981719971E0,-1.322350159E0,9.349955311E0
5.600115417E0,-8.461604004E0,-3.917653198E0,-1.634151764E0,9.466636197E0
5.610182417E0,-8.549321594E0,-3.891607361E0,-1.953437805E0,9.594343481E0
5.620249417E0,-8.685238953E0,-3.936663666E0,-2.286195831E0,9.805987348E0
5.630316417E0,-8.824748840E0,-3.972888336E0,-2.528242493E0,1.000260186E1
5.640383417E0,-8.960965576E0,-3.958518219E0,-2.605032806E0,1.013681244E1
5.650450417E0,-9.067244568E0,-3.983965302E0,-2.572250977E0,1.023246689E1
5.660517417E0,-9.262288971E0,-4.141886902E0,-2.515968018E0,1.045348359E1
5.670584417E0,-9.577234039E0,-4.381388855E0,-2.311343536E0,1.078249920E1
5.680651417E0,-9.551188202E0,-4.233795776E0,-2.146685944E0,1.066576220E1
5.690718417E0,-9.788444824E0,-4.384682007E0,-2.035167847E0,1.091700493E1
5.700785417E0,-9.938582611E0,-4.337230682E0,-1.901795197E0,1.100926061E1
5.710852417E0,-1.002330643E1,-4.094435577E0,-1.565145264E0,1.093986993E1
5.720920417E0,-1.013033386E1,-3.763922882E0,-1.266216888E0,1.088090460E1
5.730987417E0,-1.043195663E1,-3.535048828E0,-1.197958832E0,1.107959362E1
5.741054417E0,-1.089209976E1,-3.415447540E0,-1.225800934E0,1.148066666E1
5.751121417E0,-1.128667923E1,-3.308719482E0,-1.204994202E0,1.182322983E1
5.761188417E0,-1.150088379E1,-3.207230530E0,-1.153950348E0,1.199534314E1
5.771255417E0,-1.167078049E1,-3.102149048E0,-1.080153809E0,1.212423928E1
5.781322417E0,-1.197030762E1,-2.984044647E0,-1.077758789E0,1.238363238E1
5.791389417E0,-1.247101639E1,-2.881807251E0,-1.221010895E0,1.285775760E1
5.801456417E0,-1.325628342E1,-3.014730835E0,-1.588496704E0,1.368725589E1
5.811523417E0,-1.434242477E1,-3.563938751E0,-2.060165863E0,1.492149762E1
5.821590417E0,-1.543679901E1,-4.289929047E0,-2.319426727E0,1.618882316E1
5.831657417E0,-1.624990814E1,-4.865631866E0,-2.223326569E0,1.710780726E1
5.841724417E0,-1.677202240E1,-5.142705688E0,-1.819017334E0,1.763680757E1
5.851791417E0,-1.729623230E1,-5.205125885E0,-1.308429108E0,1.810980326E1
5.861859417E0,-1.777688278E1,-5.045408020E0,-8.412506104E-1,1.849814602E1
5.871926417E0,-1.798509979E1,-4.561913452E0,-2.200424194E-1,1.855595019E1
5.881993417E0,-1.789363998E1,-3.918102264E0,5.679190063E-1,1.832638560E1
5.892060417E0,-1.764725235E1,-3.425326996E0,1.233135681E0,1.801885135E1
5.902127417E0,-1.719878494E1,-3.350183258E0,1.524130554E0,1.758820358E1
5.912194417E0,-1.642100235E1,-3.736978912E0,1.416504364E0,1.690031994E1
5.922261417E0,-1.526570480E1,-4.466262360E0,1.003064117E0,1.593723251E1
5.932328417E0,-1.411235321E1,-5.197491760E0,3.872447205E-1,1.504401516E1
5.942395417E0,-1.315210007E1,-5.883515167E0,-2.885998535E-1,1.441099500E1
5.952462417E0,-1.246263382E1,-6.477480011E0,-9.560618591E-1,1.407796304E1
5.962529417E0,-1.208601700E1,-6.983727264E0,-1.516646118E0,1.404081439E1
5.972596417E0,-1.192435318E1,-7.399861908E0,-1.929337921E0,1.416582154E1
5.982663417E0,-1.181029037E1,-7.666307831E0,-2.075583801E0,1.423247282E1
5.992730417E0,-1.160087585E1,-7.745044098E0,-1.993704071E0,1.409045367E1
6.002797417E0,-1.128458359E1,-7.719896393E0,-1.766775970E0,1.378622952E1
6.012865417E0,-1.092353439E1,-7.658673706E0,-1.579964447E0,1.343410489E1
6.022932417E0,-1.048449738E1,-7.540868683E0,-1.437909851E0,1.299449770E1
6.032999417E0,-9.955347748E0,-7.395071869E0,-1.305585022E0,1.246998753E1
6.043066417E0,-9.420659637E0,-7.224127350E0,-1.244062958E0,1.193668868E1
6.053133417E0,-8.995992737E0,-7.108567657E0,-1.247655487E0,1.153326769E1
6.063200417E0,-8.582552490E0,-6.956783295E0,-1.275946655E0,1.112137945E1
6.073267417E0,-8.147407379E0,-6.745722198E0,-1.240769806E0,1.065009506E1
6.083334417E0,-7.848179626E0,-6.563551025E0,-1.236279144E0,1.030546028E1
6.093401417E0,-7.667355652E0,-6.480473785E0,-1.314716034E0,1.012488822E1
6.103468417E0,-7.539371796E0,-6.409221954E0,-1.467398529E0,1.000367490E1
6.113535417E0,-7.332202606E0,-6.316564636E0,-1.645977173E0,9.816792995E0
6.123602417E0,-7.069498901E0,-6.194568329E0,-1.748663635E0,9.560769635E0
6.133669417E0,-6.913223877E0,-6.137536926E0,-1.841171265E0,9.426130464E0
6.143736417E0,-6.815327454E0,-6.142476654E0,-1.864672394E0,9.362462864E0
6.153804417E0,-6.794371033E0,-6.168223114E0,-1.820963287E0,9.355552437E0
6.163871417E0,-6.888525238E0,-6.257287903E0,-1.820963287E0,9.482686283E0
6.173938417E0,-6.961273956E0,-6.390810242E0,-1.837728424E0,9.626995191E0
6.184005417E0,-7.022346954E0,-6.519243164E0,-1.869761810E0,9.762678803E0
6.194072417E0,-6.998247070E0,-6.657705231E0,-1.891167297E0,9.842612191E0
6.204139417E0,-6.857389984E0,-6.705006866E0,-1.786684570E0,9.755673028E0
6.214206417E0,-6.780300293E0,-6.752308502E0,-1.711690521E0,9.720906676E0
6.224273417E0,-6.849905548E0,-6.850354614E0,-1.696571960E0,9.834984534E0
6.234340417E0,-7.030879211E0,-7.019652557E0,-1.771715698E0,1.009196517E1
6.244407417E0,-7.334897003E0,-7.294481049E0,-1.956730957E0,1.052800854E1
6.254474417E0,-7.678582306E0,-7.589966583E0,-2.194436646E0,1.101743033E1
6.264541417E0,-7.948022003E0,-7.830666046E0,-2.331102448E0,1.139843950E1
6.274608417E0,-8.145760803E0,-7.940537567E0,-2.488874359E0,1.164474351E1
6.284675417E0,-8.158035278E0,-7.947423248E0,-2.442620544E0,1.164823897E1
6.294742417E0,-8.014633484E0,-7.875872040E0,-2.306553497E0,1.147100254E1
6.304809417E0,-7.858957214E0,-7.672744446E0,-2.211201782E0,1.120373282E1
6.314877417E0,-7.704628143E0,-7.477400665E0,-2.190694427E0,1.095773506E1
6.324944417E0,-7.686815186E0,-7.426207123E0,-2.374063110E0,1.094860062E1
6.335011417E0,-7.809260559E0,-7.671097870E0,-2.672542419E0,1.126821973E1
6.345078417E0,-8.052953796E0,-8.049660645E0,-3.035088501E0,1.178383908E1
6.355145417E0,-8.209228821E0,-8.385412445E0,-3.270399170E0,1.218203967E1
6.365212417E0,-7.938142548E0,-8.489296417E0,-3.351231079E0,1.209599151E1
6.375279417E0,-7.432793427E0,-8.438102875E0,-3.374881897E0,1.174043551E1
6.385346417E0,-6.952292633E0,-8.430319061E0,-3.500919800E0,1.147436673E1
6.395413417E0,-6.561455383E0,-8.452323303E0,-3.651506653E0,1.130610308E1
6.405480417E0,-6.105802917E0,-8.221952362E0,-3.504961395E0,1.082432835E1
6.415547417E0,-5.799988861E0,-7.727380829E0,-3.018323364E0,1.012237923E1
6.425614417E0,-5.908363495E0,-7.254813538E0,-2.476749573E0,9.678603572E0
6.435681417E0,-6.392456818E0,-6.914271698E0,-2.055076447E0,9.638153167E0
6.445748417E0,-6.970554657E0,-6.619085541E0,-1.862427063E0,9.791300230E0
6.455816417E0,-7.489824829E0,-6.368806000E0,-1.821562042E0,9.998862641E0
6.465883417E0,-7.809559937E0,-6.088439026E0,-1.901196442E0,1.008329629E1
6.475950083E0,-8.050858154E0,-5.949378204E0,-2.156116333E0,1.024012967E1
6.486017083E0,-8.262368317E0,-5.961353302E0,-2.543810120E0,1.050121104E1
6.496084083E0,-8.405171356E0,-5.982609100E0,-2.976560211E0,1.073771055E1
6.506151083E0,-8.460855560E0,-5.949976959E0,-3.348686371E0,1.087207446E1
6.516218083E0,-8.474177856E0,-5.864355011E0,-3.648063812E0,1.093209585E1
6.526285083E0,-8.482859802E0,-5.736820221E0,-3.877985687E0,1.095028720E1
6.536352083E0,-8.401429138E0,-5.581293640E0,-4.035757599E0,1.086380180E1
6.546419083E0,-8.293204193E0,-5.418881378E0,-3.998934174E0,1.068330406E1
6.556486083E0,-7.990832977E0,-5.047054596E0,-3.847000122E0,1.020419432E1
6.566553083E0,-7.836204529E0,-4.895569611E0,-3.682043152E0,9.946363406E0
6.576620083E0,-7.696395264E0,-4.757855988E0,-3.376977539E0,9.657933058E0
6.586687083E0,-7.599846039E0,-4.571343842E0,-2.955304413E0,9.348190654E0
6.596754083E0,-7.526797943E0,-4.334835663E0,-2.417023773E0,9.015846684E0
6.606821083E0,-7.474406891E0,-4.102668457E0,-1.932032318E0,8.742505117E0
6.616889083E0,-7.434889069E0,-3.894301758E0,-1.605561218E0,8.545231914E0
6.626956083E0,-7.420518951E0,-3.736829224E0,-1.440005493E0,8.432177060E0
6.637023083E0,-7.487729187E0,-3.639681244E0,-1.419498138E0,8.445610866E0
6.647090083E0,-7.584428101E0,-3.541485443E0,-1.479822693E0,8.500326109E0
6.657157083E0,-7.657476196E0,-3.443289642E0,-1.622326355E0,8.551323176E0
6.667224083E0,-7.759563904E0,-3.445235596E0,-1.859283600E0,8.691226369E0
6.677291083E0,-7.936795349E0,-3.476370850E0,-2.099533997E0,8.915487519E0
6.687358083E0,-8.121511230E0,-3.540886688E0,-2.335293732E0,9.162446181E0
6.697425083E0,-8.247399445E0,-3.614084473E0,-2.456541595E0,9.333584562E0
6.707492083E0,-8.360414429E0,-3.695814514E0,-2.512974243E0,9.480011281E0
6.717559083E0,-8.531209259E0,-3.792214050E0,-2.520009613E0,9.670205131E0
6.727626083E0,-8.715775452E0,-3.933819580E0,-2.433788910E0,9.867269464E0
6.737693083E0,-8.974736938E0,-4.141587524E0,-2.281256104E0,1.014410074E1
6.747760083E0,-9.170679474E0,-4.298012238E0,-2.054477692E0,1.033417388E1
6.757827083E0,-9.290879517E0,-4.398453369E0,-1.811383209E0,1.043781315E1
6.767895083E0,-9.365424500E0,-4.388573914E0,-1.501826935E0,1.045113588E1
6.777962083E0,-9.376202087E0,-4.290378113E0,-1.087937622E0,1.036841927E1
6.788029083E0,-9.524693298E0,-4.115092621E0,-6.650669861E-1,1.039692665E1
6.798096083E0,-9.919871521E0,-3.915108490E0,-3.694317627E-1,1.067091399E1
6.808163083E0,-1.046054718E1,-3.711082764E0,-2.384541321E-1,1.110189367E1
6.818230083E0,-1.110854965E1,-3.604055328E0,-3.791615295E-1,1.168472737E1
6.828297083E0,-1.157812317E1,-3.393293610E0,-5.650749207E-1,1.207835615E1
6.838364083E0,-1.196312256E1,-3.128344574E0,-8.634045410E-1,1.239549549E1
6.848431083E0,-1.230126938E1,-2.958298187E0,-1.221310272E0,1.271079680E1
6.858498083E0,-1.254436386E1,-2.863994293E0,-1.564097443E0,1.296186440E1
6.868565083E0,-1.305525146E1,-3.052602081E0,-1.912273407E0,1.354307055E1
6.878632083E0,-1.339534424E1,-2.914140015E0,-2.241588593E0,1.389072276E1
6.888699083E0,-1.426338913E1,-3.435356140E0,-2.735561371E0,1.492411596E1
6.898766083E0,-1.503174133E1,-4.047732697E0,-3.032992859E0,1.585990016E1
6.908833083E0,-1.531046173E1,-4.230802002E0,-3.025658112E0,1.616986490E1
6.918901083E0,-1.564726135E1,-4.353546753E0,-2.756517792E0,1.647387470E1
6.928968083E0,-1.608001144E1,-4.501888275E0,-2.303260345E0,1.685641641E1
6.939035083E0,-1.630259857E1,-4.488565979E0,-1.733096008E0,1.699781064E1
6.949102083E0,-1.626352982E1,-4.254153442E0,-9.765692139E-1,1.683905909E1
6.959169083E0,-1.608270584E1,-3.989503784E0,-2.116598511E-1,1.657149262E1
6.969236083E0,-1.586326218E1,-3.938010864E0,3.617976379E-1,1.634875879E1
6.979303083E0,-1.559247528E1,-4.179309082E0,7.713459778E-1,1.616127731E1
6.989370083E0,-1.514011597E1,-4.652774506E0,1.010847931E0,1.587114475E1
6.999437083E0,-1.450019669E1,-5.236560516E0,1.068478088E0,1.545376703E1
7.009504083E0,-1.370998993E1,-5.881419525E0,9.358538818E-1,1.494759987E1
7.019571083E0,-1.308414139E1,-6.403234406E0,5.900729370E-1,1.457890095E1
7.029638083E0,-1.257145752E1,-6.803801422E0,1.342707825E-1,1.429514906E1
7.039705083E0,-1.224753113E1,-7.154073029E0,-4.400848389E-1,1.419071719E1
7.049772083E0,-1.200937637E1,-7.454797668E0,-9.963281250E-1,1.417010229E1
7.059839083E0,-1.167302582E1,-7.586673431E0,-1.298399963E0,1.398223830E1
7.069906083E0,-1.126751907E1,-7.582033081E0,-1.449286194E0,1.365813465E1
7.079974083E0,-1.093775482E1,-7.555538177E0,-1.508712616E0,1.337897049E1
7.090041083E0,-1.053718781E1,-7.450007629E0,-1.480571136E0,1.298949697E1
7.100108083E0,-1.011222153E1,-7.306156769E0,-1.425485687E0,1.255663014E1
7.110175083E0,-9.622889099E0,-7.108118591E0,-1.386566620E0,1.204358383E1
7.120242083E0,-9.153016205E0,-6.898554382E0,-1.397044830E0,1.154640604E1
7.130309083E0,-8.745264130E0,-6.677015076E0,-1.431622925E0,1.109557205E1
7.140376083E0,-8.406518555E0,-6.448590088E0,-1.472787323E0,1.069686734E1
7.150443083E0,-8.134534149E0,-6.221811676E0,-1.546284485E0,1.035724780E1
7.160510083E0,-7.924969940E0,-6.029611359E0,-1.639690247E0,1.009207341E1
7.170577083E0,-7.746241608E0,-5.887706451E0,-1.763033752E0,9.888257395E0
7.180644083E0,-7.572752380E0,-5.825585632E0,-1.916315002E0,9.744551799E0
7.190711083E0,-7.384893036E0,-5.774541779E0,-2.033072205E0,9.592463734E0
7.200778083E0,-7.196434937E0,-5.739065552E0,-2.067949677E0,9.434085280E0
7.210845083E0,-7.141050110E0,-5.827381897E0,-2.074685669E0,9.447608008E0
7.220912083E0,-7.096442871E0,-6.031707001E0,-2.002386017E0,9.526307812E0
7.230980083E0,-7.008126526E0,-6.253845062E0,-1.864522705E0,9.576056620E0
7.241047083E0,-6.833290100E0,-6.423143005E0,-1.653012543E0,9.522765886E0
7.251114083E0,-6.651867371E0,-6.506220245E0,-1.397493896E0,9.409103602E0
7.261181083E0,-6.560407562E0,-6.544091492E0,-1.241218872E0,9.349048354E0
7.271248083E0,-6.493197327E0,-6.520440674E0,-1.140478363E0,9.272456471E0
7.281315083E0,-6.437962189E0,-6.425388336E0,-1.078357544E0,9.159466546E0
7.291382083E0,-6.420598297E0,-6.376589813E0,-1.101559296E0,9.115833095E0
7.301449083E0,-6.554569702E0,-6.467001801E0,-1.209933929E0,9.287003628E0
7.311516083E0,-6.788383484E0,-6.615343323E0,-1.391955414E0,9.580316147E0
7.321583083E0,-7.026089172E0,-6.846612396E0,-1.624871063E0,9.943954763E0
7.331650083E0,-7.349865875E0,-7.186405792E0,-1.850751343E0,1.044462719E1
7.341717083E0,-7.548203430E0,-7.450905762E0,-2.052232361E0,1.080291763E1
7.351784083E0,-7.504644012E0,-7.635022888E0,-2.145338745E0,1.091859582E1
7.361851083E0,-7.407196655E0,-7.651937714E0,-2.150877228E0,1.086485094E1
7.371918083E0,-7.234605560E0,-7.598947906E0,-2.113305359E0,1.070278405E1
7.381985083E0,-7.017407227E0,-7.520960083E0,-2.112556915E0,1.050103526E1
7.392053083E0,-7.037914581E0,-7.465874634E0,-2.261048126E0,1.050637256E1
7.402120083E0,-7.259004822E0,-7.496261444E0,-2.591411133E0,1.075186023E1
7.412187083E0,-7.594606934E0,-7.612120514E0,-3.047961731E0,1.117642626E1
7.422254083E0,-8.170160065E0,-7.888296204E0,-3.560346222E0,1.190179809E1
7.432321083E0,-8.447383575E0,-8.060288544E0,-3.787424011E0,1.227481655E1
7.442388083E0,-8.258326721E0,-7.956404572E0,-3.806584167E0,1.208281494E1
7.452455083E0,-7.862100677E0,-7.776628418E0,-3.842659149E0,1.170703233E1
7.462522083E0,-7.511230316E0,-7.724536743E0,-3.904480591E0,1.146001821E1
7.472588042E0,-7.218738556E0,-7.730374603E0,-3.873794403E0,1.126388747E1
7.482655042E0,-7.122788086E0,-7.703131256E0,-3.595672760E0,1.109059078E1
7.492722042E0,-7.197931824E0,-7.474257202E0,-2.967129822E0,1.079252531E1
7.502789042E0,-7.433392181E0,-7.037764893E0,-2.157762909E0,1.046142413E1
7.512856042E0,-7.760611725E0,-6.663692780E0,-1.563648376E0,1.034779648E1
7.522923042E0,-8.078101501E0,-6.356531525E0,-1.208437042E0,1.034995348E1
7.532990042E0,-8.203390961E0,-6.088588715E0,-1.070124664E0,1.027188895E1
7.543057042E0,-8.196954346E0,-5.901627502E0,-1.153052216E0,1.016606104E1
7.553125042E0,-8.143365784E0,-5.865552521E0,-1.399589539E0,1.013301355E1
7.563192042E0,-8.070018311E0,-5.888305206E0,-1.832040253E0,1.015646125E1
7.573259042E0,-8.102351074E0,-5.888454895E0,-2.366129608E0,1.029177163E1
7.583326042E0,-8.184829559E0,-5.860313416E0,-2.908302155E0,1.047821214E1
7.593393042E0,-8.194709015E0,-5.689219208E0,-3.320844269E0,1.051420362E1
7.603460042E0,-8.214617615E0,-5.423072662E0,-3.712130585E0,1.051996070E1
7.613527042E0,-8.148305511E0,-5.109325104E0,-3.940854950E0,1.039376849E1
7.623594042E0,-7.991431732E0,-4.761598206E0,-4.073778534E0,1.015536657E1
7.633661042E0,-7.821535034E0,-4.388573914E0,-4.112847290E0,9.866686582E0
7.643728042E0,-7.728728027E0,-4.176165619E0,-4.060456238E0,9.677856222E0
7.653795042E0,-7.716902618E0,-3.954027557E0,-3.844754791E0,9.485096697E0
7.663862042E0,-7.714956665E0,-3.751947784E0,-3.432811432E0,9.240230671E0
7.673929042E0,-7.773784332E0,-3.637136536E0,-2.914589081E0,9.063956892E0
7.683996042E0,-7.804919586E0,-3.526366882E0,-2.442321167E0,8.906007288E0
7.694063042E0,-7.777975616E0,-3.506607971E0,-2.117496643E0,8.790733541E0
7.704130042E0,-7.753576355E0,-3.437152405E0,-1.883233795E0,8.687838193E0
7.714198042E0,-7.763904877E0,-3.462749176E0,-1.853745117E0,8.700874769E0
7.724265042E0,-7.774083710E0,-3.528462524E0,-1.908680878E0,8.748113397E0
7.734332042E0,-7.776029663E0,-3.600612488E0,-1.965861969E0,8.791795089E0
7.744399042E0,-7.828271027E0,-3.653751984E0,-2.092648315E0,8.888808008E0
7.754466042E0,-7.971074066E0,-3.791764984E0,-2.237996063E0,9.106268711E0
7.764533042E0,-8.163124695E0,-3.908821564E0,-2.329455872E0,9.345686463E0
7.774600042E0,-8.354576569E0,-3.992796936E0,-2.280956726E0,9.536463737E0
7.784667042E0,-8.498277740E0,-4.117487640E0,-2.087259521E0,9.671146847E0
7.794734042E0,-8.581804047E0,-4.205504608E0,-1.870809631E0,9.738252327E0
7.804801042E0,-8.708590393E0,-4.289030914E0,-1.694925385E0,9.854344467E0
7.814868042E0,-8.910221100E0,-4.311334534E0,-1.475781097E0,1.000787567E1
7.824935042E0,-9.167835388E0,-4.289330292E0,-1.337768097E0,1.020966128E1
7.835002042E0,-9.356443176E0,-4.117637329E0,-1.155147858E0,1.028748427E1
7.845069042E0,-9.427695007E0,-3.773353271E0,-8.931925964E-1,1.019398946E1
7.855136042E0,-9.553882599E0,-3.425626373E0,-7.785310364E-1,1.017927794E1
7.865203042E0,-9.836195526E0,-3.121458893E0,-9.120533752E-1,1.035983057E1
7.875270042E0,-1.018287460E1,-2.946023712E0,-1.162632294E0,1.066403792E1
7.885338042E0,-1.065529221E1,-2.929857330E0,-1.468146973E0,1.114785950E1
7.895405042E0,-1.102113144E1,-2.897075500E0,-1.751807098E0,1.152940644E1
7.905472042E0,-1.126856689E1,-2.906805267E0,-1.920955353E0,1.179492205E1
7.915539042E0,-1.150402725E1,-2.947071533E0,-1.973346405E0,1.203835411E1
7.925606042E0,-1.148217270E1,-2.712808685E0,-2.068099365E0,1.197817414E1
7.935673042E0,-1.209200455E1,-3.169658661E0,-2.390977936E0,1.272713972E1
7.945740042E0,-1.292771667E1,-3.668571167E0,-2.724035339E0,1.371147845E1
7.955807042E0,-1.380908386E1,-4.222269745E0,-3.013683014E0,1.475129297E1
7.965874042E0,-1.449106567E1,-4.821773071E0,-3.110980682E0,1.558584873E1
7.975941042E0,-1.491962448E1,-5.272485809E0,-2.902164917E0,1.608778613E1
7.986008042E0,-1.548469940E1,-5.617667999E0,-2.407443695E0,1.664721882E1
7.996075042E0,-1.564411789E1,-5.348377991E0,-1.770967255E0,1.662768465E1
8.006142042E0,-1.608569962E1,-5.209017792E0,-1.332229614E0,1.696049628E1
8.016209042E0,-1.634136795E1,-4.783003693E0,-7.993377686E-1,1.704571417E1
8.026276042E0,-1.636172562E1,-4.088597717E0,-1.905537415E-1,1.686591258E1
8.036343042E0,-1.653656204E1,-3.737577667E0,2.025288391E-1,1.695489277E1
8.046410042E0,-1.666903656E1,-3.808829498E0,3.894900513E-1,1.710308933E1
8.056478042E0,-1.653461609E1,-4.230652313E0,4.611909485E-1,1.707350712E1
8.066545042E0,-1.589005646E1,-4.874164124E0,4.450245667E-1,1.662676809E1
8.076612042E0,-1.485765335E1,-5.617368622E0,3.320095825E-1,1.588757136E1
8.086679042E0,-1.399110535E1,-6.357878723E0,-1.811233521E-2,1.536795298E1
8.096746042E0,-1.329340622E1,-7.057374115E0,-5.294490051E-1,1.505993010E1
8.106813042E0,-1.273521698E1,-7.580236816E0,-1.010249176E0,1.485484248E1
8.116880042E0,-1.228016327E1,-7.947572937E0,-1.414558411E0,1.469582597E1
8.126947042E0,-1.185250259E1,-8.125403137E0,-1.632654877E0,1.446269532E1
8.137014042E0,-1.139699982E1,-8.149053955E0,-1.753453674E0,1.411996052E1
8.147081042E0,-1.091590027E1,-8.071365509E0,-1.756896515E0,1.368906517E1
8.157148042E0,-1.042087967E1,-7.955356750E0,-1.679507446E0,1.321753303E1
8.167215042E0,-9.900561676E0,-7.763904877E0,-1.527573395E0,1.267410040E1
8.177282042E0,-9.426198120E0,-7.461533661E0,-1.445693665E0,1.210858067E1
8.187349042E0,-8.975036316E0,-7.181915131E0,-1.417701874E0,1.158192818E1
8.197416042E0,-8.609945526E0,-6.909182281E0,-1.447789307E0,1.113391466E1
8.207483042E0,-8.282276917E0,-6.660998383E0,-1.479373627E0,1.073096252E1
8.217550042E0,-7.952213287E0,-6.416407013E0,-1.534758453E0,1.033264045E1
8.227618042E0,-7.639214172E0,-6.221212921E0,-1.627864838E0,9.985540912E0
8.237685042E0,-7.382498016E0,-6.134243774E0,-1.780247955E0,9.762146610E0
8.247752042E0,-7.112010498E0,-6.052813110E0,-1.900897064E0,9.530511504E0
8.257819042E0,-6.782845001E0,-5.980513458E0,-1.968556366E0,9.254660539E0
8.267886042E0,-6.552923126E0,-5.963898010E0,-1.991758118E0,9.081628784E0
8.277953042E0,-6.412066040E0,-6.022725677E0,-2.007475433E0,9.023179767E0
8.288020042E0,-6.410269775E0,-6.176605682E0,-1.974244537E0,9.118095077E0
8.298087042E0,-6.395749969E0,-6.353238373E0,-1.849404144E0,9.202692605E0
8.308154042E0,-6.402336273E0,-6.464307404E0,-1.663640442E0,9.249047491E0
8.318221042E0,-6.449787598E0,-6.643784180E0,-1.561552734E0,9.390318164E0
8.328288042E0,-6.485263824E0,-6.769073639E0,-1.491498413E0,9.492290151E0
8.338355042E0,-6.531667328E0,-6.844367065E0,-1.438807983E0,9.569650308E0
8.348422042E0,-6.618636475E0,-6.900500336E0,-1.423090668E0,9.666873368E0
8.358489042E0,-6.649622040E0,-6.826404419E0,-1.360670471E0,9.626458055E0
8.368556042E0,-6.640491028E0,-6.657256165E0,-1.287921753E0,9.490728274E0
8.378623042E0,-6.703809357E0,-6.577322388E0,-1.343456268E0,9.487207409E0
8.388691042E0,-6.906038818E0,-6.649172974E0,-1.556463318E0,9.712232053E0
8.398758042E0,-7.159611511E0,-6.899602203E0,-1.895059204E0,1.012204510E1
8.408825042E0,-7.317233734E0,-7.214098206E0,-2.141596527E0,1.049626401E1
8.418892042E0,-7.431296539E0,-7.533533936E0,-2.237546997E0,1.081595666E1
8.428959042E0,-7.457492065E0,-7.766000519E0,-2.171085205E0,1.098355876E1
8.439026042E0,-7.282955017E0,-7.891439667E0,-1.977088623E0,1.091902620E1
8.449093042E0,-6.961423645E0,-7.901169434E0,-1.831441498E0,1.068850203E1
8.459160042E0,-6.568939819E0,-7.826624451E0,-1.742376709E0,1.036546657E1
8.469227042E0,-6.482419739E0,-7.808512115E0,-1.962419128E0,1.033662014E1
8.479294667E0,-6.580914917E0,-7.885152740E0,-2.357447662E0,1.053762945E1
8.489361667E0,-6.906338196E0,-8.124505005E0,-2.802172852E0,1.102530097E1
8.499428667E0,-7.240144043E0,-8.358019409E0,-3.156935120E0,1.149967015E1
8.509495667E0,-7.393425293E0,-8.438551941E0,-3.429069214E0,1.173159887E1
8.519562667E0,-7.388635254E0,-8.406069489E0,-3.645968170E0,1.177059977E1
8.529629667E0,-7.325316925E0,-8.349636841E0,-3.861669617E0,1.175964267E1
8.539696667E0,-7.155719604E0,-8.262967072E0,-3.881727905E0,1.159951548E1
8.549763667E0,-7.053482208E0,-8.179141388E0,-3.646117859E0,1.139930439E1
8.559830667E0,-7.079677734E0,-7.939489746E0,-3.029400330E0,1.106049730E1
8.569898667E0,-7.280260620E0,-7.476652222E0,-2.207309875E0,1.066652427E1
8.579965667E0,-7.716603241E0,-7.020101624E0,-1.647174683E0,1.056129617E1
8.590032667E0,-8.274942169E0,-6.634952545E0,-1.370549927E0,1.069465616E1
8.600099667E0,-8.749754791E0,-6.271807709E0,-1.299447784E0,1.084353934E1
8.610166667E0,-9.035809937E0,-5.920637970E0,-1.326391754E0,1.088389316E1
8.620233667E0,-9.231453094E0,-5.721402283E0,-1.532213745E0,1.096821997E1
8.630300667E0,-9.405690765E0,-5.668711853E0,-1.935325470E0,1.115108952E1
8.640367667E0,-9.366023254E0,-5.617069244E0,-2.414928131E0,1.118506756E1
8.650434667E0,-9.272767181E0,-5.590574341E0,-2.981200562E0,1.123059613E1
8.660501667E0,-9.245673523E0,-5.603447571E0,-3.541485443E0,1.137643278E1
8.670568667E0,-9.246721344E0,-5.526956635E0,-3.969894562E0,1.148081740E1
8.680635667E0,-9.160800018E0,-5.342240753E0,-4.219425659E0,1.141329690E1
8.690702667E0,-9.055568848E0,-5.064717865E0,-4.294569397E0,1.122933749E1
8.700769667E0,-8.891659698E0,-4.771327972E0,-4.294569397E0,1.096679120E1
8.710836667E0,-8.712781677E0,-4.463717651E0,-4.184248810E0,1.064637393E1
8.720903667E0,-8.584348755E0,-4.221820679E0,-3.917802887E0,1.033750419E1
8.730970667E0,-8.408314819E0,-4.022285614E0,-3.510200500E0,9.959922049E0
8.741038667E0,-8.262967072E0,-3.897744598E0,-3.082390137E0,9.642103854E0
8.751105667E0,-8.161627808E0,-3.797303467E0,-2.682870941E0,9.393054805E0
8.761172667E0,-8.015980682E0,-3.741020508E0,-2.379900970E0,9.160519056E0
8.771239667E0,-7.943531342E0,-3.715872803E0,-2.120191040E0,9.022339547E0
8.781306667E0,-7.901917877E0,-3.694766693E0,-2.017953644E0,8.953420797E0
8.791373667E0,-7.896828461E0,-3.680695953E0,-2.027683411E0,8.945329645E0
8.801440667E0,-7.875422974E0,-3.692970428E0,-2.157762909E0,8.961933852E0
8.811507667E0,-7.845485229E0,-3.726800079E0,-2.265838165E0,8.976341120E0
8.821574667E0,-7.828570404E0,-3.759132843E0,-2.269580383E0,8.976000747E0
8.831641667E0,-7.837851105E0,-3.813170471E0,-2.199975128E0,8.989553356E0
8.841708667E0,-7.970325623E0,-3.945794678E0,-2.129771118E0,9.145015647E0
8.851775667E0,-8.122858429E0,-4.076323242E0,-2.030826874E0,9.312437813E0
8.861842667E0,-8.216713257E0,-4.153862000E0,-1.870809631E0,9.395151672E0
8.871909667E0,-8.349936218E0,-4.224215698E0,-1.803599396E0,9.529869039E0
8.881976667E0,-8.557704163E0,-4.348307648E0,-1.785337372E0,9.763683192E0
8.892043667E0,-8.803493042E0,-4.431983643E0,-1.751956787E0,1.001066038E1
8.902110667E0,-9.054820404E0,-4.388124847E0,-1.524130554E0,1.017685542E1
8.912177667E0,-9.317973175E0,-4.236639862E0,-1.237027588E0,1.031038208E1
8.922245667E0,-9.556576996E0,-3.889661407E0,-9.072633362E-1,1.035764242E1
8.932312667E0,-9.703421631E0,-3.444337463E0,-7.051835632E-1,1.032071392E1
8.942379667E0,-9.963880005E0,-3.027454376E0,-7.283853149E-1,1.043910580E1
8.952446667E0,-1.047821045E1,-2.736609192E0,-9.731263733E-1,1.087331132E1
8.962513667E0,-1.099882782E1,-2.579585724E0,-1.273401947E0,1.136881825E1
8.972580667E0,-1.142139908E1,-2.398312683E0,-1.577120361E0,1.177656865E1
8.982647667E0,-1.173335037E1,-2.217937775E0,-1.757345581E0,1.206975652E1
8.992714667E0,-1.201581299E1,-2.093546448E0,-1.956880646E0,1.235281670E1
9.002781667E0,-1.221235428E1,-2.060614929E0,-2.082319794E0,1.255881311E1
9.012848667E0,-1.243853394E1,-2.141596527E0,-2.226619720E0,1.281645027E1
9.022915667E0,-1.291843597E1,-2.399210815E0,-2.337539063E0,1.334564683E1
9.032982667E0,-1.360341156E1,-2.922372894E0,-2.402204590E0,1.411961955E1
9.043049667E0,-1.444915283E1,-3.672163696E0,-2.408491516E0,1.510177589E1
9.053116667E0,-1.511272293E1,-4.466112671E0,-2.236798553E0,1.591677808E1
9.063183667E0,-1.544772629E1,-4.960085449E0,-1.734293518E0,1.631693811E1
9.073250667E0,-1.565115326E1,-5.148244171E0,-1.054407349E0,1.650983923E1
9.083317667E0,-1.586311249E1,-5.189109192E0,-3.553610229E-1,1.669405503E1
9.093384667E0,-1.607342514E1,-5.113366699E0,2.655477905E-1,1.686926289E1
9.103451667E0,-1.617221970E1,-4.868176575E0,8.626560974E-1,1.691106172E1
9.113519667E0,-1.613554596E1,-4.704866180E0,1.211430817E0,1.685108821E1
9.123586667E0,-1.586625595E1,-4.809049530E0,1.228645020E0,1.662451815E1
9.133653667E0,-1.525582535E1,-5.143753510E0,9.343569946E-1,1.612673030E1
9.143720667E0,-1.436368057E1,-5.624254303E0,3.772155762E-1,1.543016032E1
9.153787667E0,-1.364412689E1,-6.133195953E0,-2.294728088E-1,1.496098088E1
9.163854667E0,-1.309417053E1,-6.526428223E0,-7.569758606E-1,1.465007098E1
9.173921667E0,-1.270647675E1,-6.935377808E0,-1.267414398E0,1.453135767E1
9.183988667E0,-1.253762787E1,-7.317533112E0,-1.735341339E0,1.462018512E1
9.194055667E0,-1.242491226E1,-7.686515808E0,-2.142195282E0,1.476651518E1
9.204122667E0,-1.229767685E1,-7.995173950E0,-2.279160461E0,1.484419869E1
9.214189667E0,-1.202479431E1,-8.191116486E0,-2.218835907E0,1.471778857E1
9.224256667E0,-1.165072220E1,-8.291856995E0,-1.995799713E0,1.443874775E1
9.234323667E0,-1.120599701E1,-8.337362366E0,-1.791923676E0,1.408179572E1
9.244390667E0,-1.075124268E1,-8.342601471E0,-1.621128845E0,1.370460788E1
9.254457667E0,-1.032477951E1,-8.289312286E0,-1.550026703E0,1.333102970E1
9.264524667E0,-9.815388794E0,-8.093220062E0,-1.473984833E0,1.280682238E1
9.274591667E0,-9.312584381E0,-7.807613983E0,-1.463506622E0,1.224029884E1
9.284658667E0,-8.893156586E0,-7.524253235E0,-1.551074524E0,1.175195528E1
9.294725667E0,-8.504864044E0,-7.255711670E0,-1.636846161E0,1.129855431E1
9.304793667E0,-8.112080841E0,-6.939868469E0,-1.736538849E0,1.081587708E1
9.314860667E0,-7.763455811E0,-6.680757294E0,-1.905238037E0,1.041795067E1
9.324927667E0,-7.410938873E0,-6.470145264E0,-2.080373840E0,1.005548358E1
9.334994667E0,-7.079827423E0,-6.272256775E0,-2.155816956E0,9.701170452E0
9.345061667E0,-6.858886871E0,-6.107000427E0,-2.162403259E0,9.434816966E0
9.355128667E0,-6.694079590E0,-5.998027039E0,-2.141446838E0,9.239741580E0
9.365195667E0,-6.578370209E0,-5.913303223E0,-2.107766876E0,9.093117772E0
9.375262667E0,-6.592440948E0,-5.905669098E0,-2.122586060E0,9.101789754E0
9.385329667E0,-6.717281342E0,-6.076763306E0,-2.199076996E0,9.321204886E0
9.395396667E0,-6.737339630E0,-6.300847321E0,-2.287243652E0,9.503888982E0
9.405463667E0,-6.651717682E0,-6.416706390E0,-2.260898438E0,9.514784851E0
9.415530667E0,-6.584956512E0,-6.466552734E0,-2.224224701E0,9.493425728E0
9.425597667E0,-6.444847870E0,-6.470444641E0,-2.069446564E0,9.364044372E0
9.435664667E0,-6.301595764E0,-6.426436157E0,-1.882335663E0,9.195236724E0
9.445731667E0,-6.267915802E0,-6.356980591E0,-1.716031494E0,9.090804960E0
9.455798667E0,-6.422095184E0,-6.330934753E0,-1.661095734E0,9.169693585E0
9.465865667E0,-6.667734375E0,-6.413413239E0,-1.706900482E0,9.407659662E0
9.475932333E0,-6.923702087E0,-6.645730133E0,-1.901645508E0,9.783641205E0
9.485999333E0,-7.147037659E0,-7.035369873E0,-2.213896179E0,1.027024405E1
9.496067333E0,-7.380701752E0,-7.435487823E0,-2.432741089E0,1.075543894E1
9.506134333E0,-7.512577515E0,-7.767796783E0,-2.411934357E0,1.107225881E1
9.516201333E0,-7.335046692E0,-7.881560211E0,-2.173480225E0,1.098389355E1
9.526268333E0,-7.041956177E0,-7.892936554E0,-1.914668427E0,1.074958369E1
9.536335333E0,-6.796915741E0,-7.862549744E0,-1.757794647E0,1.054075871E1
9.546402333E0,-6.624923401E0,-7.801476746E0,-1.780996399E0,1.038867641E1
9.556469333E0,-6.667584686E0,-7.833809509E0,-2.033820648E0,1.048626165E1
9.566536333E0,-7.076683960E0,-8.042176208E0,-2.583178253E0,1.101947657E1
9.576603333E0,-7.362439728E0,-8.170309753E0,-3.054697723E0,1.141449335E1
9.586670333E0,-7.416327667E0,-8.055348816E0,-3.338058472E0,1.144697318E1
9.596737333E0,-7.326963501E0,-7.815697174E0,-3.539988556E0,1.128277605E1
9.606804333E0,-7.219187622E0,-7.706873474E0,-3.828139343E0,1.123241824E1
9.616871333E0,-7.125931549E0,-7.662565613E0,-4.010160828E0,1.120603418E1
9.626938333E0,-7.086563416E0,-7.497758331E0,-3.946692810E0,1.104591079E1
9.637005333E0,-7.211852875E0,-7.236102448E0,-3.540138245E0,1.081224210E1
9.647072333E0,-7.376061401E0,-6.790928192E0,-2.799777832E0,1.040969468E1
9.657139333E0,-7.548053741E0,-6.387217712E0,-2.260299683E0,1.014290984E1
9.667206333E0,-7.890840912E0,-6.062842255E0,-1.943258972E0,1.013901780E1
9.677273333E0,-8.353977814E0,-5.722001038E0,-1.839075623E0,1.029137699E1
9.687341333E0,-8.824748840E0,-5.495072937E0,-2.000290375E0,1.058646212E1
9.697408333E0,-9.160949707E0,-5.326373749E0,-2.308349762E0,1.084535548E1
9.707475333E0,-9.312883759E0,-5.221891022E0,-2.741848297E0,1.102341516E1
9.717542333E0,-9.290580139E0,-5.205425262E0,-3.154240723E0,1.110678018E1
9.727609333E0,-9.195078735E0,-5.219645691E0,-3.535946960E0,1.114886070E1
9.737676333E0,-9.163943481E0,-5.237159271E0,-3.847000122E0,1.123410465E1
9.747743333E0,-9.157955933E0,-5.185666351E0,-4.050726471E0,1.127686469E1
9.757810333E0,-9.121731262E0,-5.086273041E0,-4.232747955E0,1.126908647E1
9.767877333E0,-8.979377289E0,-4.929998016E0,-4.294868774E0,1.110765478E1
9.777944333E0,-8.769064636E0,-4.744683380E0,-4.238735504E0,1.083399251E1
9.788011333E0,-8.505911865E0,-4.585115204E0,-4.053720245E0,1.047885804E1
9.798078333E0,-8.303532715E0,-4.463118896E0,-3.785627747E0,1.015869397E1
9.808145333E0,-8.143814850E0,-4.354744263E0,-3.356021118E0,9.825904317E0
9.818212333E0,-8.061785431E0,-4.268972626E0,-2.836451569E0,9.553113059E0
9.828279333E0,-7.967331848E0,-4.137695618E0,-2.285297699E0,9.263988740E0
9.838346333E0,-7.852520599E0,-3.979923706E0,-1.870659943E0,9.000068949E0
9.848413333E0,-7.784561920E0,-3.853137360E0,-1.601669312E0,8.832407168E0
9.858480333E0,-7.716902618E0,-3.744014282E0,-1.466051331E0,8.701582354E0
9.868547333E0,-7.657027130E0,-3.695365448E0,-1.456770630E0,8.626005503E0
9.878614333E0,-7.738008728E0,-3.731889496E0,-1.590891724E0,8.736974005E0
9.888682333E0,-7.829169159E0,-3.808081055E0,-1.792971497E0,8.888876072E0
9.898749333E0,-7.964637451E0,-3.957769775E0,-2.017504578E0,9.119743201E0
9.908816333E0,-8.087082825E0,-4.098776550E0,-2.176174622E0,9.323980577E0
9.918883333E0,-8.209977264E0,-4.200415192E0,-2.151625671E0,9.469778640E0
9.928950333E0,-8.330626373E0,-4.282743988E0,-2.027533722E0,9.583951421E0
9.939017333E0,-8.491841125E0,-4.376898193E0,-1.916015625E0,9.743701523E0
9.949084333E0,-8.700357513E0,-4.462969208E0,-1.865570526E0,9.954630500E0
9.959151333E0,-8.943601685E0,-4.540507965E0,-1.868414612E0,1.020270537E1
9.969218333E0,-9.256151733E0,-4.506229248E0,-1.854493561E0,1.046047768E1
9.979285333E0,-9.509724426E0,-4.365521851E0,-1.845961304E0,1.062545118E1
9.989352333E0,-9.719438324E0,-4.143383789E0,-1.818568268E0,1.072111473E1
9.999419333E0,-9.786049805E0,-3.802392883E0,-1.734143829E0,1.064106279E1
1.000948633E1,-9.957144012E0,-3.540886688E0,-1.793869629E0,1.071916805E1
1.001955333E1,-1.010952713E1,-3.320544891E0,-1.864971771E0,1.080308645E1
1.002962033E1,-1.018482056E1,-3.154091034E0,-1.836081848E0,1.081896744E1
1.003968733E1,-1.032088760E1,-3.100053406E0,-1.871707764E0,1.093774849E1
1.004975433E1,-1.029783554E1,-3.035387878E0,-1.791923676E0,1.088439189E1
1.005982133E1,-1.036309982E1,-3.002156982E0,-1.718725891E0,1.092523698E1
1.006988833E1,-1.057446030E1,-3.018473053E0,-1.727856903E0,1.113175097E1
1.007995533E1,-1.079689774E1,-3.042273560E0,-1.767225037E0,1.135568199E1
1.009002333E1,-1.115136063E1,-3.130290527E0,-1.912872162E0,1.173927777E1
1.010009033E1,-1.166389481E1,-3.337609406E0,-2.144889679E0,1.232017168E1
1.011015733E1,-1.226414658E1,-3.721411285E0,-2.347717896E0,1.302958067E1
1.012022433E1,-1.291619064E1,-4.239933014E0,-2.480042725E0,1.381866942E1
1.013029133E1,-1.348246307E1,-4.777614899E0,-2.483635254E0,1.451794954E1
1.014035833E1,-1.408406204E1,-5.247338104E0,-2.386636963E0,1.521812724E1
1.015042533E1,-1.470467148E1,-5.541326752E0,-2.164498901E0,1.586249416E1
1.016049233E1,-1.521945099E1,-5.567073212E0,-1.742825775E0,1.629912373E1
1.017055933E1,-1.546059952E1,-5.190456390E0,-1.136137390E0,1.634814311E1
1.018062633E1,-1.543485306E1,-4.385580139E0,-3.664379883E-1,1.604999311E1
1.019069333E1,-1.531540146E1,-3.397185516E0,2.655477905E-1,1.568989824E1
1.020076033E1,-1.544578033E1,-2.749183044E0,4.788542175E-1,1.569584145E1
1.021082733E1,-1.561777267E1,-2.506986694E0,4.767585754E-1,1.582488876E1
1.022089433E1,-1.542946426E1,-2.518812103E0,3.463796997E-1,1.563754331E1
1.023096133E1,-1.493369522E1,-2.993175659E0,8.801696777E-2,1.523095862E1
1.024102833E1,-1.402508469E1,-3.802093506E0,-2.381547546E-1,1.453325955E1
1.025109533E1,-1.320044952E1,-4.631818085E0,-6.575825500E-1,1.400492846E1
1.026116233E1,-1.256816437E1,-5.415588226E0,-1.198557587E0,1.373768145E1
1.027122933E1,-1.214649124E1,-6.129154358E0,-1.791923676E0,1.372278299E1
1.028129633E1,-1.190908493E1,-6.679709473E0,-2.232307892E0,1.383575155E1
1.029136433E1,-1.179187866E1,-7.102430420E0,-2.507435760E0,1.399214617E1
1.030143133E1,-1.164009430E1,-7.369325409E0,-2.621797943E0,1.402400003E1
1.031149833E1,-1.135209320E1,-7.465126190E0,-2.511177979E0,1.381680657E1
1.032156533E1,-1.097278198E1,-7.430398407E0,-2.210902405E0,1.343506064E1
1.033163233E1,-1.063493454E1,-7.371570740E0,-1.932481384E0,1.308343885E1
1.034169933E1,-1.022014709E1,-7.238347778E0,-1.686991882E0,1.263689150E1
1.035176633E1,-9.890233154E0,-7.104675751E0,-1.576222229E0,1.227915330E1
1.036183333E1,-9.473499756E0,-6.900949402E0,-1.516945496E0,1.181826654E1
1.037190033E1,-9.040150909E0,-6.669530640E0,-1.515747986E0,1.133598074E1
1.038196733E1,-8.663833466E0,-6.474635925E0,-1.561253357E0,1.092796563E1
1.039203433E1,-8.355923767E0,-6.327491913E0,-1.658101959E0,1.061168780E1
1.040210133E1,-8.080795898E0,-6.174959106E0,-1.764081573E0,1.032188772E1
1.041216833E1,-7.884104919E0,-6.064339142E0,-1.947150879E0,1.013541889E1
1.042223533E1,-7.757318573E0,-5.990243225E0,-2.138752441E0,1.003161340E1
1.043230233E1,-7.631879425E0,-5.922733612E0,-2.295775909E0,9.929498679E0
1.044236933E1,-7.569608917E0,-5.883664856E0,-2.346969452E0,9.870398011E0
1.045243633E1,-7.517517242E0,-5.948330383E0,-2.290686493E0,9.856112035E0
1.046250333E1,-7.483238525E0,-6.043083344E0,-2.210453339E0,9.869337318E0
1.047257033E1,-7.460186462E0,-6.177204437E0,-2.131118317E0,9.917353578E0
1.048263721E1,-7.424410858E0,-6.361920319E0,-2.075434113E0,9.995165506E0
1.049270421E1,-7.433092804E0,-6.690786438E0,-2.158511353E0,1.023116137E1
1.050277221E1,-7.352859650E0,-6.930887146E0,-2.155367889E0,1.033186103E1
1.051283921E1,-7.051386566E0,-6.917864227E0,-2.030527496E0,1.008473797E1
1.052290621E1,-6.764732666E0,-6.888674927E0,-1.896107025E0,9.839241441E0
1.053297321E1,-6.530320129E0,-6.898853760E0,-1.791175232E0,9.666828482E0
1.054304021E1,-6.546187134E0,-6.945706329E0,-1.785487061E0,9.709962227E0
1.055310721E1,-6.812333679E0,-7.102580109E0,-1.964814148E0,1.003568777E1
1.056317421E1,-7.154522095E0,-7.310497742E0,-2.153871002E0,1.045321596E1
1.057324121E1,-7.370822296E0,-7.439080353E0,-2.246228943E0,1.071048469E1
1.058330821E1,-7.489525452E0,-7.557783508E0,-2.288441162E0,1.088347582E1
1.059337521E1,-7.533983002E0,-7.643106079E0,-2.204166412E0,1.095610880E1
1.060344221E1,-7.461234283E0,-7.664212189E0,-2.046095123E0,1.089020986E1
1.061350921E1,-7.241341553E0,-7.588320007E0,-1.867366791E0,1.065395170E1
1.062357621E1,-7.128476257E0,-7.616910553E0,-1.855840759E0,1.059606743E1
1.063364321E1,-7.169940033E0,-7.769892426E0,-2.028880920E0,1.076548309E1
1.064371021E1,-7.306456146E0,-8.014783173E0,-2.292183380E0,1.108490665E1
1.065377721E1,-7.511380005E0,-8.330776062E0,-2.586022339E0,1.151130622E1
1.066384421E1,-7.589966583E0,-8.605903931E0,-2.844834137E0,1.182210880E1
1.067391121E1,-7.537874908E0,-8.729397125E0,-3.002606049E0,1.191795181E1
1.068397821E1,-7.433990936E0,-8.781189423E0,-3.212619324E0,1.194547746E1
1.069404521E1,-7.273824005E0,-8.746761017E0,-3.410807190E0,1.187636096E1
1.070411221E1,-7.010371857E0,-8.660690002E0,-3.533701630E0,1.168930760E1
1.071417921E1,-6.746770020E0,-8.417146454E0,-3.481011200E0,1.133510913E1
1.072424621E1,-6.668033752E0,-8.024962006E0,-3.076103210E0,1.087773415E1
1.073431421E1,-6.796616364E0,-7.547454987E0,-2.492317200E0,1.045799770E1
1.074438121E1,-6.961423645E0,-7.047195282E0,-1.928888855E0,1.009182802E1
1.075444821E1,-7.348069611E0,-6.611152039E0,-1.624122620E0,1.001694727E1
1.076451521E1,-7.843090210E0,-6.261030121E0,-1.576222229E0,1.015869277E1
1.077458221E1,-8.300089874E0,-5.954916687E0,-1.797911224E0,1.037231939E1
1.078464921E1,-8.584049377E0,-5.722001038E0,-2.177671509E0,1.054369256E1
1.079471621E1,-8.767118683E0,-5.560486908E0,-2.658471680E0,1.071675587E1
1.080478321E1,-8.897647247E0,-5.515430603E0,-3.159779205E0,1.093491225E1
1.081485021E1,-8.857380981E0,-5.508544922E0,-3.628304901E0,1.104363443E1
1.082491721E1,-8.710686035E0,-5.498515778E0,-4.028273163E0,1.106059273E1
1.083498421E1,-8.541088715E0,-5.420977020E0,-4.355043640E0,1.101379105E1
1.084505121E1,-8.443341980E0,-5.344635773E0,-4.561165009E0,1.098450643E1
1.085511821E1,-8.254285126E0,-5.169949036E0,-4.626279602E0,1.078258127E1
1.086518521E1,-7.987240448E0,-4.958738251E0,-4.546046448E0,1.044277900E1
1.087525221E1,-7.826474762E0,-4.771028595E0,-4.340823212E0,1.014195086E1
1.088531921E1,-7.703879700E0,-4.589605865E0,-3.996838531E0,9.817788074E0
1.089538621E1,-7.616760864E0,-4.412374420E0,-3.587589569E0,9.505519081E0
1.090545321E1,-7.576793976E0,-4.246369629E0,-3.147055664E0,9.238150320E0
1.091552021E1,-7.542814636E0,-4.061054993E0,-2.707419891E0,8.984227444E0
1.092558721E1,-7.545059967E0,-3.905827789E0,-2.401007080E0,8.828830932E0
1.093565421E1,-7.543712769E0,-3.790717163E0,-2.214944000E0,8.728293984E0
1.094572221E1,-7.582033081E0,-3.700604553E0,-2.122735748E0,8.699868204E0
1.095578921E1,-7.633825378E0,-3.665128326E0,-2.138602753E0,8.733961145E0
1.096585621E1,-7.721243591E0,-3.683989105E0,-2.216590576E0,8.837570487E0
1.097592321E1,-7.771539001E0,-3.733536072E0,-2.305505676E0,8.924767026E0
1.098599021E1,-7.861352234E0,-3.782035217E0,-2.423011322E0,9.054039607E0
1.099605721E1,-7.977959747E0,-3.865411835E0,-2.540816345E0,9.221984498E0
1.100612421E1,-8.102800140E0,-3.964805145E0,-2.595003662E0,9.386644446E0
1.101619121E1,-8.245453491E0,-4.075724487E0,-2.520458679E0,9.536862447E0
1.102625821E1,-8.415350189E0,-4.189487915E0,-2.368075562E0,9.694210110E0
1.103632521E1,-8.606652374E0,-4.352798309E0,-2.179916840E0,9.888041042E0
1.104639221E1,-8.837173004E0,-4.442162476E0,-2.021546173E0,1.009530005E1
1.105645921E1,-9.062753906E0,-4.466112671E0,-1.928140411E0,1.028578612E1
1.106652621E1,-9.340276794E0,-4.441863098E0,-1.827399902E0,1.050287145E1
1.107659321E1,-9.571994934E0,-4.322860565E0,-1.715881805E0,1.064210791E1
1.108666021E1,-9.638157349E0,-4.075275421E0,-1.557810516E0,1.057963707E1
1.109672721E1,-9.608818359E0,-3.748055878E0,-1.383872223E0,1.040636418E1
1.110679421E1,-9.621541901E0,-3.391946411E0,-1.239272919E0,1.027692397E1
1.111686121E1,-9.788145447E0,-3.143612823E0,-1.303938446E0,1.036293146E1
1.112692821E1,-1.013991394E1,-3.009791107E0,-1.503772888E0,1.068354015E1
1.113699521E1,-1.053943314E1,-2.886896667E0,-1.809736633E0,1.107650531E1
1.114706221E1,-1.079899338E1,-2.747237091E0,-2.085163879E0,1.133637852E1
1.115712921E1,-1.109388016E1,-2.654579773E0,-2.347119141E0,1.164602675E1
1.116719621E1,-1.142154877E1,-2.678380280E0,-2.614014130E0,1.201909177E1
1.117726421E1,-1.175550430E1,-2.731519775E0,-2.739453278E0,1.237568931E1
1.118733121E1,-1.226788879E1,-2.885100403E0,-2.864742737E0,1.292407253E1
1.119739821E1,-1.295585815E1,-3.271297302E0,-2.969375153E0,1.368841975E1
1.120746521E1,-1.380504227E1,-3.880231018E0,-2.978805542E0,1.464611441E1
1.121753221E1,-1.467593124E1,-4.598138123E0,-2.815944214E0,1.563506872E1
1.122759921E1,-1.520822433E1,-5.166955261E0,-2.371368713E0,1.623609878E1
1.123766621E1,-1.545012131E1,-5.403014374E0,-1.677561493E0,1.645335909E1
1.124773321E1,-1.569441330E1,-5.517526245E0,-1.070573730E0,1.667044789E1
1.125780021E1,-1.595771576E1,-5.525010681E0,-4.951702881E-1,1.689436678E1
1.126786721E1,-1.606564133E1,-5.246290283E0,1.573228455E-1,1.690127639E1
1.127793421E1,-1.587329132E1,-4.697980499E0,9.114546204E-1,1.657899718E1
1.128800121E1,-1.574306213E1,-4.243375854E0,1.408421173E0,1.636563149E1
1.129806821E1,-1.547377213E1,-4.005670166E0,1.453776855E0,1.604981260E1
1.130813521E1,-1.501303024E1,-4.277804260E0,9.316625977E-1,1.563837209E1
1.131820221E1,-1.414857788E1,-4.788392487E0,2.859054565E-2,1.493692659E1
1.132826921E1,-1.335223389E1,-5.223537598E0,-7.653584290E-1,1.435803846E1
1.133833621E1,-1.271141647E1,-5.641917572E0,-1.428778839E0,1.398044175E1
1.134840321E1,-1.234767288E1,-6.236630859E0,-2.079326019E0,1.398871641E1
1.135847021E1,-1.219663696E1,-6.710545349E0,-2.498753815E0,1.414330735E1
1.136853721E1,-1.219139786E1,-7.157964935E0,-2.802172852E0,1.441245352E1
1.137860421E1,-1.220382202E1,-7.506290588E0,-2.907703400E0,1.461958992E1
1.138867121E1,-1.213286957E1,-7.784711609E0,-2.842439117E0,1.469311808E1
1.139873821E1,-1.190384583E1,-7.954458618E0,-2.538421326E0,1.454023866E1
1.140880621E1,-1.152034332E1,-7.969577179E0,-2.082170105E0,1.416219979E1
1.141887321E1,-1.123698257E1,-8.034991150E0,-1.796414337E0,1.393046893E1
1.142894021E1,-1.077908478E1,-8.029302979E0,-1.553170166E0,1.353036262E1
1.143900721E1,-1.021326141E1,-7.858059082E0,-1.358574829E0,1.295783650E1
1.144907421E1,-9.660161591E0,-7.642357635E0,-1.296304321E0,1.238566741E1
1.145914121E1,-9.202263794E0,-7.455097046E0,-1.334474945E0,1.191809357E1
1.146920821E1,-8.756341095E0,-7.180867310E0,-1.439257050E0,1.141533291E1
1.147927667E1,-8.386759644E0,-6.934030609E0,-1.582958221E0,1.099655739E1
1.148934367E1,-8.064180450E0,-6.728807373E0,-1.760938110E0,1.064935482E1
1.149941067E1,-7.834707642E0,-6.568341064E0,-1.968556366E0,1.041157828E1
1.150947767E1,-7.594157867E0,-6.454128571E0,-2.161954193E0,1.019809077E1
1.151954467E1,-7.375312958E0,-6.364764404E0,-2.250719604E0,9.998560191E0
1.152961167E1,-7.187303925E0,-6.310876465E0,-2.266137543E0,9.829541130E0
1.153967867E1,-7.069498901E0,-6.310577087E0,-2.214195557E0,9.731590818E0
1.154974567E1,-6.958729248E0,-6.382876740E0,-2.149380341E0,9.684258571E0
1.155981267E1,-6.866221619E0,-6.415808258E0,-2.063608704E0,9.621126535E0
1.156987967E1,-6.730304260E0,-6.426136780E0,-1.969005432E0,9.511530463E0
1.157994667E1,-6.586752777E0,-6.467301178E0,-1.903142395E0,9.425139132E0
1.159001367E1,-6.433321838E0,-6.456224213E0,-1.867965546E0,9.303749580E0
1.160008067E1,-6.282884674E0,-6.469546509E0,-1.882185974E0,9.212616127E0
1.161014767E1,-6.133345642E0,-6.494993591E0,-1.922751617E0,9.137824922E0
1.162021467E1,-5.978866882E0,-6.483317871E0,-1.900447998E0,9.021749409E0
1.163028167E1,-6.017935638E0,-6.523883514E0,-1.894310760E0,9.075517545E0
1.164034867E1,-6.244414673E0,-6.692433014E0,-1.930086365E0,9.354496653E0
1.165041567E1,-6.569538574E0,-6.978039093E0,-2.022144928E0,9.794944450E0
1.166048367E1,-6.784192200E0,-7.301965485E0,-2.119592285E0,1.019002626E1
1.167055067E1,-6.850653992E0,-7.601342926E0,-2.139051819E0,1.045406223E1
1.168061767E1,-6.768774261E0,-7.814499664E0,-2.061063995E0,1.054185443E1
1.169068467E1,-6.609056396E0,-7.884553986E0,-1.925146637E0,1.046670949E1
1.170075167E1,-6.479126587E0,-7.796686707E0,-1.761237488E0,1.028928386E1
1.171081867E1,-6.485413513E0,-7.765551453E0,-1.709295502E0,1.026090001E1
1.172088567E1,-6.586154022E0,-7.798333282E0,-1.842069397E0,1.037230189E1
1.173095267E1,-6.825356598E0,-8.058492279E0,-2.202220459E0,1.078770436E1
1.174101967E1,-7.154372406E0,-8.502019958E0,-2.608924713E0,1.141384580E1
1.175108667E1,-7.416177979E0,-9.029073944E0,-2.871478729E0,1.203200990E1
1.176115367E1,-7.421566772E0,-9.461674347E0,-3.008593597E0,1.239574807E1
1.177122067E1,-7.193441162E0,-9.637408905E0,-3.108286285E0,1.242121934E1
1.178128767E1,-6.882088623E0,-9.621392212E0,-3.229234772E0,1.226223019E1
1.179135467E1,-6.635551300E0,-9.609566803E0,-3.284320221E0,1.213099644E1
1.180142167E1,-6.392756195E0,-9.529932404E0,-3.208128662E0,1.191549550E1
1.181148867E1,-6.245312805E0,-9.199270020E0,-2.739902344E0,1.145153115E1
1.182155567E1,-6.538553009E0,-8.516689453E0,-1.903441772E0,1.090457543E1
1.183162267E1,-7.043902130E0,-7.757617950E0,-1.272054749E0,1.055534541E1
1.184168967E1,-7.782316589E0,-7.141349487E0,-1.056652679E0,1.061507602E1
1.185175667E1,-8.449179840E0,-6.645580444E0,-1.232836304E0,1.081999375E1
1.186182367E1,-9.024134216E0,-6.344556427E0,-1.798060913E0,1.117682503E1
1.187189067E1,-9.280850372E0,-6.151607666E0,-2.442171478E0,1.139915181E1
1.188195767E1,-9.295968933E0,-6.078409882E0,-3.145259399E0,1.154360263E1
1.189202467E1,-9.232949982E0,-6.099815369E0,-3.838018799E0,1.171262145E1
1.190209167E1,-9.200766907E0,-6.179300079E0,-4.411925354E0,1.192907987E1
1.191215967E1,-9.284293213E0,-6.241271210E0,-4.848267975E0,1.219250873E1
1.192222667E1,-9.324260101E0,-6.227050781E0,-5.114115143E0,1.232364238E1
1.193229367E1,-9.319020996E0,-6.164780273E0,-5.262157288E0,1.235066668E1
1.194236067E1,-9.307345276E0,-6.015690308E0,-5.146747284E0,1.221901033E1
1.195242767E1,-9.250463562E0,-5.882317657E0,-4.798721008E0,1.196663948E1
1.196249467E1,-9.082063751E0,-5.804629211E0,-4.350552979E0,1.162346392E1
1.197256167E1,-8.997190247E0,-5.744604034E0,-3.849844208E0,1.134774023E1
1.198262867E1,-8.911418610E0,-5.631139984E0,-3.279679871E0,1.103990123E1
1.199269567E1,-8.812474365E0,-5.426365814E0,-2.657872925E0,1.068501001E1
1.200276267E1,-8.790320435E0,-5.206473083E0,-2.115999756E0,1.043333841E1
1.201282967E1,-8.702153778E0,-4.928650818E0,-1.680405579E0,1.014114600E1
1.202289667E1,-8.689130859E0,-4.697232056E0,-1.502126312E0,9.991064384E0
1.203296367E1,-8.610693970E0,-4.452041931E0,-1.479373627E0,9.805777599E0
1.204303067E1,-8.465795288E0,-4.185895386E0,-1.545985107E0,9.569821315E0
1.205309767E1,-8.375083923E0,-3.946692810E0,-1.720073090E0,9.416850126E0
1.206316467E1,-8.251141663E0,-3.735032959E0,-1.932331696E0,9.260978119E0
1.207323167E1,-8.167166290E0,-3.543132019E0,-2.142494659E0,9.156782900E0
1.208329867E1,-8.161627808E0,-3.439996490E0,-2.369422760E0,9.168419086E0
1.209336567E1,-8.156089325E0,-3.379971313E0,-2.547702026E0,9.188949057E0
1.210343267E1,-8.152047729E0,-3.365451508E0,-2.638563080E0,9.205659192E0
1.211349967E1,-8.159382477E0,-3.392245789E0,-2.625091095E0,9.218131977E0
1.212356667E1,-8.262518005E0,-3.502865753E0,-2.520907745E0,9.321708434E0
1.213363367E1,-8.395291901E0,-3.608396301E0,-2.376757507E0,9.441950339E0
1.214370067E1,-8.578959961E0,-3.716471558E0,-2.251917114E0,9.616748179E0
1.215376767E1,-8.806786194E0,-3.772455139E0,-2.158361664E0,9.820866862E0
1.216383567E1,-9.043144684E0,-3.758234711E0,-2.103276215E0,1.001631493E1
1.217390267E1,-9.226363678E0,-3.595672760E0,-2.032024384E0,1.010859893E1
1.218396967E1,-9.412127380E0,-3.413651276E0,-2.006128235E0,1.021105809E1
1.219403667E1,-9.650880890E0,-3.228935394E0,-2.005379791E0,1.037241890E1
1.220410367E1,-9.860145721E0,-3.072211304E0,-2.005379791E0,1.052057527E1
1.221417067E1,-1.012479538E1,-2.979104919E0,-1.982926483E0,1.073864726E1
1.222423767E1,-1.042357407E1,-2.955753479E0,-1.898651733E0,1.099964787E1
1.223430467E1,-1.077713882E1,-2.945724335E0,-1.762734375E0,1.131066955E1
1.224437167E1,-1.115136063E1,-2.977458344E0,-1.545086975E0,1.164497298E1
1.225443867E1,-1.161180313E1,-3.045866089E0,-1.323397980E0,1.207736123E1
1.226450567E1,-1.221340210E1,-3.229983215E0,-1.239422607E0,1.269394150E1
1.227457267E1,-1.305375458E1,-3.612437897E0,-1.353784790E0,1.361186796E1
1.228463967E1,-1.401355865E1,-4.112847290E0,-1.614841919E0,1.469363990E1
1.229470667E1,-1.496228577E1,-4.705165558E0,-1.875749359E0,1.579642409E1
1.230477367E1,-1.580233887E1,-5.340444489E0,-1.953737183E0,1.679438448E1
1.231484067E1,-1.628867752E1,-5.718109131E0,-1.779948578E0,1.735471130E1
1.232490767E1,-1.659553940E1,-5.858517151E0,-1.297501831E0,1.764702984E1
1.233497467E1,-1.660362259E1,-5.430706787E0,-1.044527893E0,1.750039708E1
1.234504167E1,-1.689297089E1,-5.562432861E0,-9.216334534E-1,1.780905761E1
1.235510867E1,-1.649659515E1,-5.202281799E0,-5.376818848E-1,1.730579352E1
1.236517567E1,-1.568737793E1,-4.699776764E0,-1.471440125E-1,1.637691605E1
1.237524267E1,-1.489582397E1,-4.618046722E0,-3.598516846E-1,1.559940450E1
1.238530967E1,-1.412881897E1,-4.895569611E0,-1.056203613E0,1.499018657E1
1.239537667E1,-1.348875000E1,-5.227279816E0,-1.735640717E0,1.456994439E1
1.240544367E1,-1.291169998E1,-5.613027649E0,-2.251318359E0,1.425785784E1
1.241551067E1,-1.249032623E1,-6.035449219E0,-2.625989227E0,1.411845303E1
1.242557767E1,-1.221355179E1,-6.492598572E0,-2.798580322E0,1.411229022E1
1.243564467E1,-1.209424988E1,-6.959328003E0,-2.903063049E0,1.425239985E1
1.244571267E1,-1.208481949E1,-7.471862183E0,-2.881657562E0,1.449743208E1
1.245577967E1,-1.207808350E1,-7.952662354E0,-2.751578064E0,1.472060193E1
1.246584667E1,-1.192585007E1,-8.272247772E0,-2.412832489E0,1.471318265E1
1.247591367E1,-1.167706741E1,-8.460705872E0,-2.060764618E0,1.456654379E1
1.248597992E1,-1.132335297E1,-8.551716614E0,-1.717079315E0,1.429330406E1
1.249604692E1,-1.083836151E1,-8.506510620E0,-1.429078217E0,1.385182543E1
1.250611392E1,-1.048719177E1,-8.462053070E0,-1.296154633E0,1.353763459E1
1.251618092E1,-1.009440857E1,-8.324638824E0,-1.195114746E0,1.313868316E1
1.252624792E1,-9.682165833E0,-8.095465393E0,-1.126557312E0,1.267083369E1
1.253631492E1,-9.325307922E0,-7.838449860E0,-1.142124939E0,1.223548583E1
1.254638192E1,-9.061706085E0,-7.583080902E0,-1.160985718E0,1.187289017E1
1.255644892E1,-8.847202148E0,-7.302115173E0,-1.213676147E0,1.153546192E1
1.256651592E1,-8.613837433E0,-7.040908356E0,-1.290466461E0,1.119990578E1
1.257658292E1,-8.438102875E0,-6.840924225E0,-1.432071991E0,1.095676296E1
1.258664992E1,-8.282276917E0,-6.751859436E0,-1.556613007E0,1.079846104E1
1.259671692E1,-8.128696289E0,-6.769971771E0,-1.624571686E0,1.070268444E1
1.260678392E1,-7.981402588E0,-6.755302277E0,-1.627116394E0,1.058226837E1
1.261685092E1,-7.840844879E0,-6.789580994E0,-1.599723358E0,1.049458781E1
1.262691792E1,-7.700586548E0,-6.898554382E0,-1.602417755E0,1.046216175E1
1.263698492E1,-7.542365570E0,-6.988966370E0,-1.571132813E0,1.040198960E1
1.264705192E1,-7.374265137E0,-7.051536255E0,-1.516346741E0,1.031519546E1
1.265711892E1,-7.217690735E0,-7.149432678E0,-1.487456818E0,1.026752039E1
1.266718592E1,-7.040758667E0,-7.220684509E0,-1.427132263E0,1.018564057E1
1.267725292E1,-6.866371307E0,-7.278763733E0,-1.416803741E0,1.010617580E1
1.268731992E1,-6.646179199E0,-7.295977936E0,-1.339564362E0,9.959790393E0
1.269738692E1,-6.408922577E0,-7.235054626E0,-1.255888367E0,9.746669156E0
1.270745392E1,-6.392606506E0,-7.316036224E0,-1.247655487E0,9.795225786E0
1.271752092E1,-6.550677795E0,-7.481591949E0,-1.356628876E0,1.003623633E1
1.272758892E1,-6.770570526E0,-7.720794525E0,-1.549427948E0,1.038518273E1
1.273765592E1,-6.975195007E0,-8.015232239E0,-1.755699005E0,1.076939052E1
1.274772292E1,-6.982679443E0,-8.138875122E0,-1.800006866E0,1.087378155E1
1.275778992E1,-6.944359131E0,-8.240513763E0,-1.806742859E0,1.092677952E1
1.276785692E1,-6.929090881E0,-8.315807190E0,-1.757794647E0,1.096607458E1
1.277792392E1,-6.932683411E0,-8.294252014E0,-1.680704956E0,1.093990333E1
1.278799092E1,-6.961124268E0,-8.239765320E0,-1.662592621E0,1.091399092E1
1.279805792E1,-7.072792053E0,-8.308322754E0,-1.805096283E0,1.105942978E1
1.280812492E1,-7.241191864E0,-8.539891205E0,-2.180964661E0,1.140706835E1
1.281819192E1,-7.416177979E0,-8.888516235E0,-2.614313507E0,1.186760514E1
1.282825892E1,-7.435487823E0,-9.135652313E0,-2.954406281E0,1.214393424E1
1.283832592E1,-7.054979095E0,-9.129964142E0,-3.087030487E0,1.194398311E1
1.284839292E1,-6.471193085E0,-8.982071686E0,-3.095263367E0,1.149498182E1
1.285845992E1,-6.015241241E0,-8.983269196E0,-3.240910492E0,1.128652973E1
1.286852692E1,-5.554349670E0,-8.981323242E0,-3.326831818E0,1.107171068E1
1.287859392E1,-5.157973938E0,-8.739276581E0,-3.179089050E0,1.063420225E1
1.288866092E1,-5.095703430E0,-8.252339172E0,-2.764900360E0,1.008523521E1
1.289872792E1,-5.564528503E0,-7.720046082E0,-2.283501434E0,9.786596332E0
1.290879492E1,-6.137686615E0,-7.231761475E0,-1.988315277E0,9.691386312E0
1.291886192E1,-6.720724182E0,-6.913523254E0,-1.937870178E0,9.834646824E0
1.292892892E1,-7.240742798E0,-6.628815308E0,-2.014959869E0,1.002145757E1
1.293899592E1,-7.567213898E0,-6.357429657E0,-2.173031158E0,1.011937263E1
1.294906292E1,-7.894433441E0,-6.260131989E0,-2.486928406E0,1.037767531E1
1.295912992E1,-8.124954071E0,-6.341263275E0,-2.852917328E0,1.069418701E1
1.296919692E1,-8.286617889E0,-6.468199310E0,-3.172353058E0,1.098041266E1
1.297926392E1,-8.434360657E0,-6.643035736E0,-3.511697388E0,1.129603391E1
1.298933092E1,-8.573421478E0,-6.759942627E0,-3.818708954E0,1.156645660E1
1.299939792E1,-8.658145294E0,-6.786587219E0,-3.981719971E0,1.169937349E1
1.300946492E1,-8.660240936E0,-6.644233246E0,-3.949985962E0,1.160810052E1
1.301953192E1,-8.587941284E0,-6.401288452E0,-3.770060120E0,1.135528875E1
1.302959992E1,-8.519982605E0,-6.144721985E0,-3.559747467E0,1.109141623E1
1.303966692E1,-8.442144470E0,-5.865253143E0,-3.318449249E0,1.080199533E1
1.304973392E1,-8.515042877E0,-5.664071503E0,-3.124003601E0,1.069331846E1
1.305980092E1,-8.716374207E0,-5.404810638E0,-2.881358185E0,1.065313955E1
1.306986792E1,-8.799601135E0,-5.095254364E0,-2.564317474E0,1.048667351E1
1.307993492E1,-8.852890320E0,-4.831802216E0,-2.312091980E0,1.034725804E1
1.309000192E1,-8.876391449E0,-4.621788940E0,-2.108964386E0,1.022736471E1
1.310006892E1,-8.869505768E0,-4.491410065E0,-2.026485901E0,1.014630682E1
1.311013592E1,-8.871152344E0,-4.478985901E0,-1.986818390E0,1.013440210E1
1.312020292E1,-8.744216309E0,-4.434528351E0,-1.985471191E0,1.000342223E1
1.313026992E1,-8.663085022E0,-4.373006287E0,-2.039059753E0,9.916147980E0
1.314033692E1,-8.677455139E0,-4.351900177E0,-2.269580383E0,9.969365976E0
1.315040392E1,-8.784781952E0,-4.330644379E0,-2.465073853E0,1.009967642E1
1.316047092E1,-8.927584991E0,-4.281696167E0,-2.675685883E0,1.025641218E1
1.317053792E1,-9.141041107E0,-4.280648346E0,-2.845133514E0,1.048700946E1
1.318060492E1,-9.289083252E0,-4.166435852E0,-2.904559937E0,1.058691285E1
1.319067192E1,-9.526489563E0,-4.089944916E0,-2.959495697E0,1.078147799E1
1.320073892E1,-9.816137238E0,-4.060306549E0,-3.023412781E0,1.104462151E1
1.321080592E1,-1.010952713E1,-4.072431335E0,-3.047362976E0,1.131696324E1
1.322087292E1,-1.034408936E1,-4.009562073E0,-3.024161224E0,1.149879662E1
1.323093992E1,-1.065574127E1,-4.014950867E0,-3.024310913E0,1.178181264E1
1.324100692E1,-1.091455307E1,-4.031416626E0,-2.878364410E0,1.198602396E1
1.325107392E1,-1.075812836E1,-3.632196808E0,-2.567460938E0,1.164139318E1
1.326114092E1,-1.078537170E1,-3.511398010E0,-2.394869843E0,1.159265114E1
1.327120792E1,-1.092637848E1,-3.372786255E0,-2.293829956E0,1.166289371E1
1.328127492E1,-1.114043335E1,-3.186573486E0,-2.220931549E0,1.179813726E1
1.329134192E1,-1.134909943E1,-2.993025970E0,-2.102378082E0,1.192393626E1
1.330140892E1,-1.158096725E1,-2.842139740E0,-1.984123993E0,1.208856108E1
1.331147592E1,-1.177197006E1,-2.684218140E0,-1.880090332E0,1.221961725E1
1.332154292E1,-1.205143890E1,-2.558928680E0,-1.855840759E0,1.245911075E1
1.333160992E1,-1.241832596E1,-2.470462646E0,-1.847009125E0,1.279568083E1
1.334167692E1,-1.302231995E1,-2.514471130E0,-2.030826874E0,1.341743789E1
1.335174492E1,-1.397613647E1,-2.863844604E0,-2.477797394E0,1.448010624E1
1.336181192E1,-1.499117569E1,-3.443589020E0,-2.907404022E0,1.565396602E1
1.337187892E1,-1.582000214E1,-4.171225891E0,-3.114573212E0,1.665449367E1
1.338194592E1,-1.589095459E1,-4.308490448E0,-2.826871490E0,1.670558979E1
1.339201292E1,-1.590158249E1,-4.259242859E0,-2.367027740E0,1.663142495E1
1.340207992E1,-1.627909744E1,-4.521946564E0,-2.144889679E0,1.703107648E1
1.341214692E1,-1.651246216E1,-4.551884308E0,-1.874851227E0,1.723067394E1
1.342221392E1,-1.642669052E1,-4.310885468E0,-1.257984009E0,1.702945738E1
1.343228092E1,-1.608584930E1,-4.068988495E0,-6.563850403E-1,1.660548272E1
1.344234792E1,-1.571192688E1,-4.139192505E0,-3.891906738E-1,1.625266225E1
1.345241492E1,-1.510359192E1,-4.419110413E0,-3.835025024E-1,1.574147705E1
1.346248192E1,-1.433598816E1,-4.857249298E0,-7.533833313E-1,1.515523057E1
1.347254892E1,-1.384485947E1,-5.382207642E0,-1.234482880E0,1.490544333E1
1.348261604E1,-1.349114502E1,-5.831573181E0,-1.677711182E0,1.479300357E1
1.349268304E1,-1.314910629E1,-6.321953430E0,-2.108215942E0,1.474146078E1
1.350275004E1,-1.286529648E1,-6.815626831E0,-2.404150543E0,1.475630585E1
1.351281704E1,-1.264615219E1,-7.293732605E0,-2.675236816E0,1.484185273E1
1.352288404E1,-1.248164429E1,-7.766748962E0,-2.857258301E0,1.497590593E1
1.353295104E1,-1.226818817E1,-8.177345123E0,-2.856809235E0,1.501794837E1
1.354301804E1,-1.196761322E1,-8.475674744E0,-2.710263977E0,1.491329472E1
1.355308504E1,-1.159009827E1,-8.598269806E0,-2.409239960E0,1.463096233E1
1.356315204E1,-1.125314896E1,-8.664432220E0,-2.143841858E0,1.436321012E1
1.357321904E1,-1.093491074E1,-8.724307709E0,-1.980681152E0,1.412830194E1
1.358328604E1,-1.047566574E1,-8.585097198E0,-1.766775970E0,1.365887858E1
1.359335304E1,-1.008003845E1,-8.392896881E0,-1.591340790E0,1.321288230E1
1.360342004E1,-9.746831360E0,-8.259224854E0,-1.460213470E0,1.285876122E1
1.361348704E1,-9.343270569E0,-8.106991425E0,-1.293310547E0,1.243755069E1
1.362355404E1,-8.849597168E0,-7.927364960E0,-1.110839996E0,1.193283079E1
1.363362104E1,-8.377029877E0,-7.686066742E0,-9.949809265E-1,1.141228455E1
1.364368804E1,-8.003855896E0,-7.471712494E0,-1.029409332E0,1.099763067E1
1.365375504E1,-7.768994293E0,-7.290738831E0,-1.187779999E0,1.072021298E1
1.366382204E1,-7.639363861E0,-7.113357697E0,-1.356329498E0,1.052612786E1
1.367388904E1,-7.593559113E0,-7.069349213E0,-1.559008026E0,1.049134616E1
1.368395704E1,-7.454647980E0,-7.203619995E0,-1.730700989E0,1.050995925E1
1.369402404E1,-6.881190491E0,-7.264543304E0,-1.817969513E0,1.017002385E1
1.370409104E1,-6.451134796E0,-7.325017548E0,-1.849553833E0,9.934478930E0
1.371415804E1,-6.254892883E0,-7.349865875E0,-1.850751343E0,9.826977862E0
1.372422504E1,-6.169869690E0,-7.303761749E0,-1.796713715E0,9.728330168E0
1.373429204E1,-6.160139923E0,-7.178921356E0,-1.724563751E0,9.615526810E0
1.374435904E1,-6.305188293E0,-7.197782135E0,-1.555565186E0,9.694495868E0
1.375442604E1,-6.472390594E0,-7.231462097E0,-1.320703583E0,9.794393397E0
1.376449304E1,-6.422095184E0,-7.143744507E0,-1.224603424E0,9.683803265E0
1.377456004E1,-6.228547668E0,-6.988666992E0,-1.272204437E0,9.447474611E0
1.378462704E1,-6.070925446E0,-6.924151154E0,-1.363514557E0,9.309091089E0
1.379469404E1,-5.838458862E0,-7.046746216E0,-1.447938995E0,9.265028950E0
1.380476104E1,-5.857319641E0,-7.310348053E0,-1.648521881E0,9.511414533E0
1.381482804E1,-6.370452576E0,-7.630831604E0,-2.087109833E0,1.015717896E1
1.382489504E1,-5.752687225E0,-7.904312897E0,-1.913021851E0,9.961487102E0
1.383496204E1,-5.348976746E0,-8.149652710E0,-1.473386078E0,9.858968407E0
1.384502904E1,-5.690865784E0,-8.219108276E0,-1.470991058E0,1.010462809E1
1.385509604E1,-5.530998230E0,-8.071515198E0,-1.260379028E0,9.865589405E0
1.386516304E1,-5.550457764E0,-7.987988892E0,-1.043929138E0,9.782910404E0
1.387523004E1,-5.699098663E0,-8.005053406E0,-9.948312378E-1,9.876755277E0
1.388529704E1,-5.829028473E0,-8.183632050E0,-1.386716309E0,1.014260265E1
1.389536404E1,-6.020779724E0,-8.635841675E0,-1.866468658E0,1.069164418E1
1.390543104E1,-6.346352692E0,-9.075477448E0,-2.352208557E0,1.132136778E1
1.391549804E1,-6.422244873E0,-9.216484222E0,-2.810705109E0,1.157967503E1
1.392556504E1,-6.511459351E0,-9.016200714E0,-2.924767914E0,1.149979328E1
1.393563204E1,-6.770121460E0,-8.856931915E0,-3.088227997E0,1.156792720E1
1.394569904E1,-7.034322052E0,-8.804840240E0,-3.188070374E0,1.171198920E1
1.395576604E1,-7.186405792E0,-8.628506927E0,-3.013533325E0,1.162656196E1
1.396583304E1,-7.221432953E0,-8.325986023E0,-2.592009888E0,1.132208693E1
1.397590004E1,-7.174281006E0,-7.809260559E0,-2.015558624E0,1.079431957E1
1.398596704E1,-7.429649963E0,-7.308701477E0,-1.688189392E0,1.055778382E1
1.399603404E1,-7.820487213E0,-6.922205200E0,-1.592089233E0,1.056464354E1
1.400610104E1,-8.269403687E0,-6.580765228E0,-1.770967255E0,1.071568166E1
1.401616804E1,-8.619675293E0,-6.348298645E0,-1.975292358E0,1.088583840E1
1.402623504E1,-8.875343628E0,-6.142626343E0,-2.293530579E0,1.103466653E1
1.403630204E1,-9.187294922E0,-6.065087585E0,-2.688409424E0,1.133222046E1
1.404636904E1,-9.502090302E0,-6.147416382E0,-3.153492279E0,1.174840252E1
1.405643704E1,-9.704319763E0,-6.268364868E0,-3.556005249E0,1.208765459E1
1.406650404E1,-9.893975372E0,-6.318809967E0,-3.809727631E0,1.234229041E1
1.407657104E1,-1.003438339E1,-6.292614441E0,-3.998185730E0,1.250085340E1
1.408663804E1,-1.006611740E1,-6.176605682E0,-4.148323517E0,1.251741848E1
1.409670504E1,-9.977501678E0,-5.863756256E0,-4.179309082E0,1.230450330E1
1.410677204E1,-9.859097900E0,-5.506598969E0,-4.103267212E0,1.201504246E1
1.411683904E1,-9.708810425E0,-5.126389618E0,-3.924089813E0,1.165930321E1
1.412690604E1,-9.528585205E0,-4.679419098E0,-3.655847626E0,1.122747171E1
1.413697304E1,-9.351204071E0,-4.219725037E0,-3.414998474E0,1.081264591E1
1.414704004E1,-9.168733521E0,-3.838617554E0,-3.154091034E0,1.042827643E1
1.415710704E1,-9.025780792E0,-3.596421204E0,-2.839744720E0,1.012240655E1
1.416717404E1,-8.841663666E0,-3.431314545E0,-2.604434052E0,9.835243394E0
1.417724104E1,-8.658594360E0,-3.367547150E0,-2.408940582E0,9.597636419E0
1.418730804E1,-8.501421204E0,-3.370241547E0,-2.263443146E0,9.421033141E0
1.419737504E1,-8.361761627E0,-3.437751160E0,-2.218386841E0,9.309051011E0
1.420744204E1,-8.251291351E0,-3.519630890E0,-2.232008514E0,9.244104747E0
1.421750904E1,-8.106392670E0,-3.567531281E0,-2.229763184E0,9.133056740E0
1.422757604E1,-8.014184418E0,-3.638932800E0,-2.292782135E0,9.095374304E0
1.423764304E1,-8.045619049E0,-3.775598602E0,-2.355202332E0,9.194243238E0
1.424771004E1,-8.146209869E0,-3.876189423E0,-2.361339569E0,9.325315235E0
1.425777704E1,-8.155490570E0,-3.908372498E0,-2.241738281E0,9.317338275E0
1.426784404E1,-8.226892090E0,-3.971541138E0,-2.179916840E0,9.391854444E0
1.427791104E1,-8.238867188E0,-4.081712036E0,-2.077529755E0,9.426316118E0
1.428797804E1,-8.270152130E0,-4.108955383E0,-1.955084381E0,9.439347728E0
1.429804504E1,-8.454868011E0,-4.177812195E0,-1.870061188E0,9.614366161E0
1.430811204E1,-8.749754791E0,-4.174668732E0,-1.748663635E0,9.851085851E0
1.431817904E1,-9.023834839E0,-4.093387756E0,-1.573976898E0,1.003308635E1
1.432824604E1,-9.135802002E0,-3.820205841E0,-1.354233856E0,9.994538520E0
1.433831304E1,-9.337881775E0,-3.582200775E0,-1.150058441E0,1.006731508E1
1.434838004E1,-9.847571869E0,-3.520978088E0,-1.178050232E0,1.052424633E1
1.435844704E1,-1.036953644E1,-3.495531006E0,-1.249900818E0,1.101400359E1
1.436851404E1,-1.083342178E1,-3.398981781E0,-1.223256226E0,1.141982752E1
1.437858104E1,-1.119132751E1,-3.268153839E0,-1.175206146E0,1.171783899E1
1.438864804E1,-1.161090500E1,-3.162922668E0,-1.156195679E0,1.208941616E1
1.439871504E1,-1.201326828E1,-2.998265076E0,-1.125808868E0,1.243284577E1
1.440878204E1,-1.251442612E1,-2.879711609E0,-1.228195953E0,1.290008005E1
1.441884904E1,-1.311377975E1,-2.849175110E0,-1.431473236E0,1.349585617E1
1.442891604E1,-1.400742142E1,-3.069067841E0,-1.837279358E0,1.445692317E1
1.443898304E1,-1.510419067E1,-3.674708405E0,-2.221081238E0,1.570265136E1
1.444905004E1,-1.594858475E1,-4.353247375E0,-2.373164978E0,1.670149784E1
1.445911804E1,-1.624511810E1,-4.668042755E0,-2.020648041E0,1.702285240E1
1.446918504E1,-1.626173355E1,-4.625830536E0,-1.391206970E0,1.696401318E1
1.447925167E1,-1.651725220E1,-4.679568787E0,-8.476872253E-1,1.718826803E1
1.448931867E1,-1.687919952E1,-4.714745636E0,-5.014572144E-1,1.753247451E1
1.449938567E1,-1.692844711E1,-4.586163025E0,-9.639953613E-2,1.753894255E1
1.450945267E1,-1.665331924E1,-4.515809326E0,3.917353821E-1,1.725917241E1
1.451951967E1,-1.606279724E1,-4.500541077E0,6.334826660E-1,1.669340066E1
1.452958667E1,-1.535836212E1,-4.872068481E0,5.301974487E-1,1.612133517E1
1.453965367E1,-1.439137299E1,-5.363496552E0,5.343887329E-2,1.535843636E1
1.454972067E1,-1.353260880E1,-5.862409058E0,-5.447172546E-1,1.475791508E1
1.455978767E1,-1.293550049E1,-6.282884674E0,-9.967771912E-1,1.441510935E1
1.456985467E1,-1.243269608E1,-6.685098267E0,-1.332828369E0,1.417881878E1
1.457992167E1,-1.218885315E1,-7.103029175E0,-1.577569427E0,1.419541792E1
1.458998867E1,-1.213855774E1,-7.583080902E0,-1.715582428E0,1.441495484E1
1.460005567E1,-1.200922668E1,-7.970625000E0,-1.676214294E0,1.451075749E1
1.461012267E1,-1.173320068E1,-8.146209869E0,-1.438209229E0,1.435608510E1
1.462018967E1,-1.139400604E1,-8.140970764E0,-1.121617584E0,1.404837374E1
1.463025667E1,-1.111857880E1,-8.195008392E0,-9.665400696E-1,1.384612425E1
1.464032367E1,-1.069870193E1,-8.131091309E0,-8.243357849E-1,1.346314965E1
1.465039067E1,-1.023122406E1,-7.954458618E0,-7.216493225E-1,1.297968164E1
1.466045767E1,-9.744885406E0,-7.781568146E0,-7.045848083E-1,1.249047774E1
1.467052467E1,-9.330547028E0,-7.585775299E0,-8.066725159E-1,1.205212908E1
1.468059167E1,-8.863817596E0,-7.369924164E0,-9.425898743E-1,1.156596387E1
1.469065867E1,-8.464448090E0,-7.129673767E0,-1.077309723E0,1.111934017E1
1.470072567E1,-8.072113953E0,-6.919211426E0,-1.199306030E0,1.069919835E1
1.471079267E1,-7.772437134E0,-6.701564026E0,-1.355730743E0,1.035179913E1
1.472085967E1,-7.519762573E0,-6.500831451E0,-1.540746002E0,1.005890337E1
1.473092667E1,-7.325765991E0,-6.324797516E0,-1.736688538E0,9.832903846E0
1.474099367E1,-7.235503693E0,-6.244564362E0,-1.845212860E0,9.734059187E0
1.475106067E1,-7.153773651E0,-6.262826385E0,-1.882036285E0,9.692344008E0
1.476112767E1,-7.103627930E0,-6.390810242E0,-1.932331696E0,9.748737923E0
1.477119467E1,-6.999893646E0,-6.570586395E0,-1.852547607E0,9.777681181E0
1.478126167E1,-6.811884613E0,-6.666686554E0,-1.799707489E0,9.699764360E0
1.479132867E1,-6.740483093E0,-6.971752167E0,-1.788031769E0,9.860856870E0
1.480139567E1,-6.516997833E0,-7.110064545E0,-1.570833435E0,9.771990394E0
1.481146267E1,-6.237828369E0,-7.065606995E0,-1.325343933E0,9.517869589E0
1.482152967E1,-6.095474396E0,-7.112309875E0,-1.218316498E0,9.445848557E0
1.483159667E1,-5.982160034E0,-7.008276215E0,-1.145418091E0,9.285157876E0
1.484166367E1,-6.039191437E0,-6.860982513E0,-1.104702759E0,9.206806311E0
1.485173067E1,-6.214327240E0,-6.799610138E0,-1.191971283E0,9.288345203E0
1.486179767E1,-6.470145264E0,-6.879992981E0,-1.367705841E0,9.542939925E0
1.487186467E1,-6.705306244E0,-7.182064819E0,-1.621727600E0,9.958573558E0
1.488193167E1,-6.845564575E0,-7.514373779E0,-1.855242004E0,1.033293233E1
1.489199967E1,-6.971452789E0,-7.833659821E0,-1.967358856E0,1.066948364E1
1.490206667E1,-7.073091431E0,-8.088879089E0,-1.883084106E0,1.090892264E1
1.491213367E1,-6.982829132E0,-8.168363800E0,-1.622476044E0,1.086804943E1
1.492220067E1,-6.879543915E0,-8.131989441E0,-1.251697083E0,1.072492995E1
1.493226767E1,-6.821614380E0,-8.100854187E0,-1.060394897E0,1.064343453E1
1.494233467E1,-6.792275391E0,-8.132438507E0,-1.212628326E0,1.066499079E1
1.495240167E1,-6.934030609E0,-8.335566101E0,-1.648222504E0,1.096718196E1
1.496246867E1,-7.301366730E0,-8.619375916E0,-2.218985596E0,1.151205865E1
1.497253567E1,-7.531138916E0,-8.733139343E0,-2.725382538E0,1.184961966E1
1.498260267E1,-7.535330200E0,-8.624465332E0,-3.052602081E0,1.185246738E1
1.499266967E1,-7.432943115E0,-8.442443848E0,-3.374582520E0,1.174356456E1
1.500273667E1,-7.159461823E0,-8.414751434E0,-3.619323578E0,1.162606720E1
1.501280367E1,-6.698570251E0,-8.337362366E0,-3.549418945E0,1.126857708E1
1.502287067E1,-6.414011993E0,-8.082741852E0,-3.127296753E0,1.078194095E1
1.503293767E1,-6.601721649E0,-7.698341217E0,-2.484084320E0,1.044116187E1
1.504300467E1,-7.080575867E0,-7.284751282E0,-1.931882629E0,1.034090549E1
1.505307167E1,-7.657027130E0,-6.945107574E0,-1.688039703E0,1.047444804E1
1.506313867E1,-8.159232788E0,-6.567742310E0,-1.620829468E0,1.059883988E1
1.507320567E1,-8.647367706E0,-6.174809418E0,-1.841919708E0,1.078415077E1
1.508327267E1,-8.882229309E0,-5.899980927E0,-2.142045593E0,1.087621863E1
1.509333967E1,-9.018146667E0,-5.788762207E0,-2.561772766E0,1.101814036E1
1.510340667E1,-9.033564606E0,-5.834716644E0,-3.025508423E0,1.117152223E1
1.511347367E1,-8.961115265E0,-5.966143341E0,-3.476819916E0,1.131303363E1
1.512354067E1,-8.865613861E0,-6.070925446E0,-3.816613312E0,1.140270942E1
1.513360767E1,-8.727600861E0,-6.029461670E0,-3.990401917E0,1.133352250E1
1.514367467E1,-8.557404785E0,-5.912255402E0,-4.045786743E0,1.116030156E1
1.515374167E1,-8.359067230E0,-5.710025940E0,-4.003873901E0,1.088620262E1
1.516380867E1,-8.176746368E0,-5.387147369E0,-3.831282806E0,1.051471663E1
1.517387567E1,-7.983647919E0,-5.004542999E0,-3.568279724E0,1.007554986E1
1.518394267E1,-7.785909119E0,-4.636757812E0,-3.217409363E0,9.616216866E0
1.519400967E1,-7.607480164E0,-4.331392822E0,-2.835852814E0,9.201998663E0
1.520407667E1,-7.503596191E0,-4.129462738E0,-2.417323151E0,8.899430854E0
1.521414367E1,-7.423213348E0,-3.941753082E0,-1.963017883E0,8.631045880E0
1.522421067E1,-7.423363037E0,-3.853137360E0,-1.676513672E0,8.530163210E0
1.523427767E1,-7.468119965E0,-3.794908447E0,-1.537003784E0,8.516837826E0
1.524434467E1,-7.547005920E0,-3.733536072E0,-1.537003784E0,8.559145436E0
1.525441167E1,-7.684719543E0,-3.751498718E0,-1.689087524E0,8.716746742E0
1.526447867E1,-7.836503906E0,-3.762276306E0,-1.902244263E0,8.898541999E0
1.527454567E1,-7.893684998E0,-3.697760468E0,-2.105371857E0,8.967512809E0
1.528461267E1,-7.962541809E0,-3.663332062E0,-2.296973419E0,9.060803537E0
1.529467967E1,-8.026458893E0,-3.661835175E0,-2.447260895E0,9.155444560E0
1.530474667E1,-8.157436523E0,-3.723656616E0,-2.558928680E0,9.325100816E0
1.531481367E1,-8.253386993E0,-3.820505219E0,-2.570005646E0,9.450903978E0
1.532488067E1,-8.306376801E0,-3.906276855E0,-2.478845215E0,9.507868742E0
1.533494767E1,-8.393795013E0,-3.993844757E0,-2.453398132E0,9.613831342E0
1.534501467E1,-8.683891754E0,-4.207151184E0,-2.392774200E0,9.941602761E0
1.535508167E1,-9.061855774E0,-4.273014221E0,-2.299518127E0,1.027928325E1
1.536514867E1,-9.417366486E0,-4.235292664E0,-2.196681976E0,1.055698381E1
1.537521567E1,-9.693841553E0,-4.164938965E0,-2.094893646E0,1.075666584E1
1.538528267E1,-9.888287201E0,-4.055516510E0,-1.989812164E0,1.087128283E1
1.539534967E1,-1.014200958E1,-3.886368256E0,-1.849254456E0,1.101743884E1
1.540541767E1,-1.055949142E1,-3.805087280E0,-1.741777954E0,1.135849192E1
1.541548467E1,-1.104957230E1,-3.834126892E0,-1.692081299E0,1.181764427E1
1.542555167E1,-1.148696274E1,-3.914060669E0,-1.653910675E0,1.224767751E1
1.543561867E1,-1.179142960E1,-3.906875610E0,-1.600471802E0,1.252449596E1
1.544568567E1,-1.205652832E1,-3.833378448E0,-1.554667053E0,1.274643696E1
1.545575267E1,-1.231638794E1,-3.682192841E0,-1.522633667E0,1.294489742E1
1.546581967E1,-1.262833923E1,-3.557202759E0,-1.617985382E0,1.321917244E1
1.547588667E1,-1.301947586E1,-3.510799255E0,-1.832639008E0,1.360849106E1
1.548595354E1,-1.354832611E1,-3.641627197E0,-2.051783295E0,1.417844857E1
1.549602054E1,-1.419079010E1,-3.954925690E0,-2.335742798E0,1.491561783E1
1.550608754E1,-1.482053055E1,-4.444856873E0,-2.605631561E0,1.569057660E1
1.551615454E1,-1.515822830E1,-4.882846069E0,-2.527494049E0,1.612458673E1
1.552622154E1,-1.514909729E1,-4.868176575E0,-2.079924774E0,1.604744151E1
1.553628854E1,-1.509146713E1,-4.594246216E0,-1.669777679E0,1.586340556E1
1.554635554E1,-1.550849991E1,-4.707111511E0,-1.455573120E0,1.627234345E1
1.555642254E1,-1.570249649E1,-4.424499207E0,-1.228495331E0,1.636012806E1
1.556648954E1,-1.556927353E1,-3.838168488E0,-7.475454712E-1,1.605280785E1
1.557655654E1,-1.533216660E1,-3.318149872E0,-3.489244080E-1,1.569099102E1
1.558662354E1,-1.507455231E1,-3.211122437E0,-3.017724609E-1,1.541572253E1
1.559669054E1,-1.469509140E1,-3.540587311E0,-5.504054260E-1,1.512562117E1
1.560675754E1,-1.385848114E1,-4.092938690E0,-9.574090576E-1,1.448192939E1
1.561682454E1,-1.296483948E1,-4.650828552E0,-1.235830078E0,1.382911945E1
1.562689154E1,-1.233015930E1,-5.229974213E0,-1.450783081E0,1.347183099E1
1.563695854E1,-1.183049835E1,-5.812113647E0,-1.687141571E0,1.328863435E1
1.564702554E1,-1.152483398E1,-6.314618683E0,-1.855840759E0,1.327178784E1
1.565709254E1,-1.132290390E1,-6.698869629E0,-1.928589478E0,1.329670878E1
1.566715954E1,-1.119956039E1,-6.977440338E0,-1.973346405E0,1.334199845E1
1.567722654E1,-1.112950607E1,-7.197333069E0,-2.003882904E0,1.340459083E1
1.568729354E1,-1.099134338E1,-7.356152802E0,-1.962119751E0,1.337058441E1
1.569736054E1,-1.070394104E1,-7.414381714E0,-1.818867645E0,1.314745943E1
1.570742754E1,-1.026714935E1,-7.339387665E0,-1.600920868E0,1.272178898E1
1.571749454E1,-9.736053772E0,-7.207362213E0,-1.382375336E0,1.219211937E1
1.572756154E1,-9.218280487E0,-7.007976837E0,-1.274898834E0,1.164962667E1
1.573762854E1,-8.802744598E0,-6.799759827E0,-1.287173309E0,1.119740422E1
1.574769554E1,-8.356372833E0,-6.532715149E0,-1.361867981E0,1.069392438E1
1.575776254E1,-8.023914185E0,-6.248156891E0,-1.477427673E0,1.027645152E1
1.576782954E1,-7.739655304E0,-6.040239258E0,-1.599723358E0,9.947153831E0
1.577789654E1,-7.507488098E0,-5.860014038E0,-1.651365967E0,9.665875626E0
1.578796354E1,-7.329508209E0,-5.774092712E0,-1.750609589E0,9.493496257E0
1.579803054E1,-7.137457581E0,-5.732628937E0,-1.853445740E0,9.340320998E0
1.580809754E1,-6.971602478E0,-5.728886719E0,-1.879790955E0,9.217212061E0
1.581816454E1,-6.880891113E0,-5.751190338E0,-1.826950836E0,9.152081849E0
1.582823154E1,-6.825206909E0,-5.856122131E0,-1.713636475E0,9.155007686E0
1.583829854E1,-6.821614380E0,-6.081253967E0,-1.568887482E0,9.272404246E0
1.584836554E1,-6.785988464E0,-6.315516815E0,-1.421743469E0,9.378525821E0
1.585843254E1,-6.711144104E0,-6.504573669E0,-1.283131714E0,9.433735252E0
1.586849954E1,-6.680158539E0,-6.700815582E0,-1.147962799E0,9.531173388E0
1.587856654E1,-6.642287292E0,-6.803801422E0,-1.040635986E0,9.565281884E0
1.588863354E1,-6.680607605E0,-6.850204926E0,-9.377998352E-1,9.614327539E0
1.589870054E1,-6.559659119E0,-6.747219086E0,-8.234376526E-1,9.446276659E0
1.590876754E1,-6.548881531E0,-6.610852661E0,-6.713539124E-1,9.329626910E0
1.591883454E1,-6.938970337E0,-6.650071106E0,-6.638694763E-1,9.633975178E0
1.592890154E1,-7.514822845E0,-6.934329987E0,-8.131091309E-1,1.025761382E1
1.593896854E1,-8.135881348E0,-7.331454163E0,-1.077010345E0,1.100466886E1
1.594903554E1,-8.667276306E0,-7.805668030E0,-1.358724518E0,1.174292401E1
1.595910254E1,-8.856333160E0,-8.207432556E0,-1.540895691E0,1.217254886E1
1.596916954E1,-8.684340820E0,-8.492888947E0,-1.531315613E0,1.224303335E1
1.597923754E1,-8.258626099E0,-8.624615021E0,-1.398541718E0,1.202267891E1
1.598930454E1,-7.729177094E0,-8.644972687E0,-1.450633392E0,1.168674756E1
1.599937154E1,-7.443421326E0,-8.744964752E0,-1.650168457E0,1.160180958E1
1.600943754E1,-7.374714203E0,-8.980724487E0,-2.116299133E0,1.181179681E1
1.601950554E1,-7.532037048E0,-9.400751038E0,-2.839744720E0,1.237618084E1
1.602957254E1,-7.523205414E0,-9.770182800E0,-3.397933960E0,1.279066249E1
1.603963954E1,-7.232659607E0,-9.845476227E0,-3.692072296E0,1.276229466E1
1.604970654E1,-6.892267456E0,-9.760453033E0,-3.829336853E0,1.254725527E1
1.605977354E1,-6.678212585E0,-9.672735443E0,-4.036655731E0,1.242798953E1
1.606984054E1,-6.513854370E0,-9.553134155E0,-4.163741455E0,1.228940250E1
1.607990754E1,-6.239774323E0,-9.161548462E0,-3.867507477E0,1.173994753E1
1.608997454E1,-6.192772064E0,-8.482859802E0,-3.125051422E0,1.095788678E1
1.610004154E1,-6.583908691E0,-7.762258301E0,-2.288590851E0,1.043255269E1
1.611010854E1,-7.135212250E0,-7.024442596E0,-1.635798340E0,1.014543660E1
1.612017554E1,-7.829019470E0,-6.411916351E0,-1.375489655E0,1.021264848E1
1.613024254E1,-8.357570343E0,-5.932313690E0,-1.499282227E0,1.035804880E1
1.614030954E1,-8.724756775E0,-5.554948425E0,-1.907333679E0,1.051745000E1
1.615037654E1,-8.947343903E0,-5.354365540E0,-2.549198914E0,1.073417944E1
1.616044354E1,-8.901090088E0,-5.243895264E0,-3.271297302E0,1.083647675E1
1.617051054E1,-8.677155762E0,-5.150489502E0,-3.992048492E0,1.085159092E1
1.618057754E1,-8.418942719E0,-5.008135529E0,-4.544399872E0,1.079868456E1
1.619064454E1,-8.121211853E0,-4.827461243E0,-5.067412262E0,1.072087361E1
1.620071154E1,-7.788004761E0,-4.698579254E0,-5.541326752E0,1.065063225E1
1.621077854E1,-7.431595917E0,-4.600084076E0,-5.805976410E0,1.049279531E1
1.622084554E1,-7.083719330E0,-4.476441193E0,-5.841003571E0,1.021444702E1
1.623091254E1,-6.885830841E0,-4.361180878E0,-5.559888153E0,9.866454343E0
1.624097954E1,-6.825655975E0,-4.267625427E0,-4.999603271E0,9.476193284E0
1.625104654E1,-6.795568542E0,-4.269721069E0,-4.217629395E0,9.066348082E0
1.626111354E1,-6.771318970E0,-4.225413208E0,-3.395239563E0,8.673668720E0
1.627118054E1,-6.777156830E0,-4.146527252E0,-2.674638062E0,8.383151657E0
1.628124754E1,-6.766828308E0,-4.080664215E0,-2.118544464E0,8.181076728E0
1.629131454E1,-6.827152863E0,-4.040098572E0,-1.845362549E0,8.144800526E0
1.630138154E1,-6.850204926E0,-3.967948608E0,-1.721270599E0,8.101400876E0
1.631144854E1,-6.875202942E0,-3.852688293E0,-1.783241730E0,8.080320145E0
1.632151554E1,-6.849755859E0,-3.774101715E0,-1.931134186E0,8.055574364E0
1.633158254E1,-6.908284149E0,-3.729644165E0,-2.129322052E0,8.134411342E0
1.634164954E1,-6.976093140E0,-3.710933075E0,-2.295476532E0,8.228372396E0
1.635171654E1,-7.056925049E0,-3.758983154E0,-2.433938599E0,8.357882663E0
1.636178354E1,-7.203320618E0,-3.839964752E0,-2.480342102E0,8.531427440E0
1.637185054E1,-7.287595367E0,-3.955524445E0,-2.388283539E0,8.628969703E0
1.638191754E1,-7.351512451E0,-4.087699585E0,-2.173929291E0,8.687922178E0
1.639198454E1,-7.474556580E0,-4.164639587E0,-1.948348389E0,8.775493171E0
1.640205154E1,-7.686216431E0,-4.259841614E0,-1.805695038E0,8.971327001E0
1.641211854E1,-7.980654144E0,-4.316274261E0,-1.770667877E0,9.244259235E0
1.642218554E1,-8.240513763E0,-4.329895935E0,-1.744322662E0,9.470835625E0
1.643225254E1,-8.453969879E0,-4.279151459E0,-1.724713440E0,9.630959473E0
1.644231954E1,-8.640332336E0,-4.157155151E0,-1.676214294E0,9.733805843E0
1.645238654E1,-8.813222809E0,-3.913461914E0,-1.634750519E0,9.780618063E0
1.646245354E1,-9.063053284E0,-3.688779144E0,-1.735790405E0,9.937756021E0
1.647252054E1,-9.502389679E0,-3.500919800E0,-1.908381500E0,1.030503610E1
1.648258796E1,-9.963281250E0,-3.470682678E0,-2.178869019E0,1.077311848E1
1.649265496E1,-1.041863434E1,-3.491938477E0,-2.382595367E0,1.124359091E1
1.650272196E1,-1.085827011E1,-3.530857544E0,-2.518662415E0,1.169241828E1
1.651278896E1,-1.128982269E1,-3.578757935E0,-2.548749847E0,1.211460815E1
