"Time (s)","Acceleration x (m/s^2)","Acceleration y (m/s^2)","Acceleration z (m/s^2)","Absolute acceleration (m/s^2)"
2.385208325E-3,-3.334166565E0,6.704707489E0,6.575975189E0,9.965601782E0
1.245020831E-2,-3.410507812E0,6.994055786E0,5.863456879E0,9.743126113E0
2.251520829E-2,-3.248245239E0,7.200177155E0,5.574258270E0,9.667781724E0
3.258020832E-2,-2.876268768E0,7.238647156E0,5.468578033E0,9.517157159E0
4.264620831E-2,-2.518213348E0,7.082970886E0,5.298980713E0,9.197231738E0
5.271120829E-2,-2.607727203E0,6.984026642E0,5.339995422E0,9.170191951E0
6.277620833E-2,-3.021766205E0,7.253166962E0,5.893993378E0,9.822355110E0
7.284120831E-2,-3.359613647E0,7.596552887E0,6.774761810E0,1.071876939E1
8.290620829E-2,-3.396287384E0,7.708969116E0,7.624245300E0,1.136186997E1
9.297120833E-2,-3.185226288E0,7.371870117E0,8.319699097E0,1.156319716E1
1.030362083E-1,-2.871029663E0,6.806795197E0,8.781488800E0,1.147561840E1
1.131012083E-1,-2.400108948E0,6.261329498E0,8.816515961E0,1.107681018E1
1.231662083E-1,-2.093396759E0,5.851332092E0,8.450676727E0,1.048972518E1
1.332312083E-1,-2.112556915E0,5.767805786E0,7.735763397E0,9.877880119E0
1.432972083E-1,-2.479294281E0,4.592150574E0,6.888974304E0,8.642494662E0
1.533622083E-1,-1.059945831E0,3.787424011E0,5.485492859E0,6.749718343E0
1.634272083E-1,-1.080602875E0,4.877457275E0,5.582042084E0,7.491093770E0
1.734922083E-1,-1.594933319E0,5.157973938E0,6.142177277E0,8.177704393E0
1.835572083E-1,-1.177152100E0,4.318669281E0,5.338348846E0,6.966674948E0
1.936222083E-1,-4.590953064E-1,4.571493530E0,4.564458160E0,6.476387874E0
2.036872083E-1,-1.102008362E0,5.244643707E0,5.782325592E0,7.883907616E0
2.137522083E-1,-2.372865601E0,5.542224884E0,7.894583130E0,9.933337335E0
2.238172083E-1,-6.171665955E-1,5.360802155E0,8.835376740E0,1.035292116E1
2.338822083E-1,8.893006897E-1,5.162913666E0,9.425299988E0,1.078345089E1
2.439482083E-1,4.092489624E-1,4.843927002E0,9.227261810E0,1.042945224E1
2.540132083E-1,-4.739144897E-1,4.661606140E0,8.542735291E0,9.743382010E0
2.640782083E-1,-5.794450378E-1,4.334536285E0,7.049141235E0,8.295441731E0
2.741432083E-1,-7.002438354E-1,4.192332001E0,6.034551086E0,7.381178486E0
2.842082083E-1,-1.095721436E0,4.262685699E0,5.684279480E0,7.189028310E0
2.942732083E-1,-1.494342499E0,4.631818085E0,5.699098663E0,7.494432857E0
3.043382083E-1,-1.338516541E0,4.935087433E0,5.395230560E0,7.433385991E0
3.144032083E-1,-1.178499298E0,4.924459534E0,4.944068756E0,7.076932821E0
3.244682083E-1,-1.244961090E0,4.718787231E0,4.471950531E0,6.619306807E0
3.345332083E-1,-1.657054138E0,4.236939240E0,4.025878143E0,6.074963157E0
3.445992083E-1,-6.096671906E0,4.239933014E0,3.590583344E0,8.248559210E0
3.546642083E-1,-9.189390564E0,4.946912842E0,5.900130615E0,1.198867744E1
3.647292083E-1,-2.955005035E0,4.803810425E0,6.805897064E0,8.839054486E0
3.747942083E-1,6.718029785E-1,5.520969086E0,4.003275146E0,6.852636776E0
3.848592083E-1,7.535330200E-1,4.334236908E0,6.420897675E0,7.783402118E0
3.949242083E-1,7.321275330E-1,5.143005066E0,6.521039429E0,8.337293749E0
4.049892083E-1,2.099533997E0,5.568420410E0,6.301745453E0,8.667603165E0
4.150542083E-1,3.214714966E0,5.129084015E0,6.321504364E0,8.752331836E0
4.251192083E-1,3.140768738E0,4.995711365E0,6.218817902E0,8.572937443E0
4.351852083E-1,3.306474152E0,4.758305054E0,7.096442871E0,9.161535882E0
4.452502083E-1,2.577490082E0,3.753294983E0,6.706354065E0,8.105915321E0
4.553152083E-1,2.082768860E0,3.345692596E0,5.597759399E0,6.845910850E0
4.653802083E-1,3.356619873E0,3.391497345E0,5.658383331E0,7.401787158E0
4.754452083E-1,3.957620087E0,2.769690399E0,6.070476379E0,7.757875040E0
4.855102083E-1,3.824995880E0,1.824406128E0,5.586682434E0,7.012137465E0
4.955752083E-1,2.543660431E0,9.015751648E-1,5.458848267E0,6.089504952E0
5.056402083E-1,1.644180908E0,2.189197540E0,6.045628052E0,6.636681043E0
5.157052083E-1,2.529440002E0,1.834584961E0,4.367767181E0,5.370396527E0
5.257702083E-1,3.065325623E0,8.822653198E-1,3.075055389E0,4.430640915E0
5.358362083E-1,2.725083160E0,-8.358618164E-1,3.388952637E0,4.428288968E0
5.459012083E-1,2.564616852E0,-2.861449585E0,4.090543671E0,5.612281251E0
5.559662083E-1,5.132826233E0,-8.657995605E-1,4.653672638E0,6.982276351E0
5.660312083E-1,6.123166809E0,-1.610650635E-1,6.034251709E0,8.598331665E0
5.760962083E-1,8.072413330E0,-5.054988098E-1,7.524402924E0,1.104699169E1
5.861612083E-1,8.699010315E0,-9.970765686E-1,7.638615417E0,1.161961220E1
5.962262083E-1,8.341104584E0,-1.128503265E0,7.304659882E0,1.114475667E1
6.062912083E-1,7.986042938E0,-1.178648987E0,6.787485352E0,1.054685037E1
6.163562083E-1,7.676037598E0,-2.137255554E0,5.588478699E0,9.732446181E0
6.264212083E-1,7.127129059E0,-3.527714081E0,4.865182800E0,9.322592930E0
6.364872083E-1,7.023694153E0,-4.907993774E0,5.216053162E0,1.003134552E1
6.465522083E-1,7.635022888E0,-5.973178711E0,5.500761108E0,1.114588764E1
6.566172083E-1,8.303233337E0,-6.749763794E0,5.280569000E0,1.193261933E1
6.666822083E-1,9.044940948E0,-7.020251312E0,4.653223572E0,1.235910089E1
6.767472083E-1,9.195228424E0,-7.337741089E0,3.824397125E0,1.237015293E1
6.868122083E-1,9.699529724E0,-8.173752594E0,2.647694092E0,1.295767697E1
6.968772083E-1,1.128024261E1,-8.957672424E0,1.878144379E0,1.452622439E1
7.069422083E-1,1.277563293E1,-8.608448639E0,2.224823456E0,1.556508992E1
7.170072083E-1,1.407133850E1,-7.714357910E0,2.404300232E0,1.622635340E1
7.270732083E-1,1.459120743E1,-7.412735138E0,2.218686218E0,1.651588765E1
7.371382083E-1,1.410172531E1,-7.910599823E0,1.981579285E0,1.628996325E1
7.472032083E-1,1.397404083E1,-8.541238403E0,1.568288727E0,1.645254084E1
7.572682083E-1,1.450049606E1,-8.793314209E0,1.344653778E0,1.701160941E1
7.673332083E-1,1.527573395E1,-8.846304016E0,1.672172699E0,1.773136498E1
7.773982083E-1,1.609168716E1,-9.207802277E0,2.304008789E0,1.868246437E1
7.874632083E-1,1.691332855E1,-9.320068817E0,3.163820801E0,1.956870276E1
7.975282083E-1,1.757899429E1,-9.249116364E0,3.809428253E0,2.022569993E1
8.075932083E-1,1.793615158E1,-9.230105896E0,4.030817871E0,2.057055860E1
8.176582083E-1,1.830199081E1,-8.740474091E0,3.855382690E0,2.064516241E1
8.277242083E-1,1.855960510E1,-7.772736511E0,2.731370087E0,2.030602760E1
8.377892083E-1,1.897274597E1,-7.088060303E0,1.189725952E0,2.028844835E1
8.478548333E-1,1.952734268E1,-6.746320953E0,1.514849854E-1,2.066041883E1
8.579198333E-1,2.004840912E1,-6.221212921E0,9.984237671E-2,2.099171663E1
8.679848333E-1,2.044852707E1,-5.196294250E0,-2.625540161E-1,2.110006322E1
8.780498333E-1,2.097977234E1,-4.150868225E0,-9.933343506E-1,2.140951348E1
8.881148333E-1,2.146491348E1,-2.572849731E0,-2.329904938E0,2.174374677E1
8.981798333E-1,2.058504318E1,-9.422904968E-1,-5.199138336E0,2.125236348E1
9.082448333E-1,1.938768311E1,-5.150788879E-1,-8.401429138E0,2.113602550E1
9.183108333E-1,1.902633453E1,-2.360142059E0,-9.620643768E0,2.145060519E1
9.283758333E-1,1.618614075E1,-2.512525177E0,-8.189020844E0,1.831294617E1
9.384408333E-1,1.255588989E1,-3.358715515E0,-6.892566833E0,1.471185979E1
9.485058333E-1,9.106762390E0,-5.262306976E0,-4.957989807E0,1.162783982E1
9.585708333E-1,6.866221619E0,-6.588998108E0,-2.409090271E0,9.816496896E0
9.686358333E-1,5.262606354E0,-6.642287292E0,1.142124939E-1,8.475143102E0
9.787008333E-1,4.611161041E0,-7.227570190E0,-3.387455750E-1,8.579937387E0
9.887658333E-1,4.087400208E0,-7.895032196E0,-1.245859222E0,8.977223348E0
9.988308333E-1,3.663032684E0,-8.276738434E0,-1.189576263E0,9.128926511E0
1.008895833E0,2.292333069E0,-7.909851379E0,-6.825805664E-1,8.263561942E0
1.018961833E0,7.229965210E-1,-6.736441498E0,-1.217717743E0,6.883691199E0
1.029026833E0,-4.587959290E-1,-6.025420074E0,-2.521955566E0,6.548010435E0
1.039091833E0,-1.184486847E0,-5.893843689E0,-2.767295380E0,6.618030390E0
1.049156833E0,-2.072889404E0,-5.248385925E0,-2.234702911E0,6.069293402E0
1.059221833E0,-1.877096558E0,-4.699028320E0,-9.960287476E-1,5.157172860E0
1.069286833E0,-6.212081909E-2,-4.389472046E0,-4.918771362E-1,4.417382365E0
1.079351833E0,9.592053223E-1,-3.718567200E0,-4.044589233E-1,3.861528699E0
1.089416833E0,1.729952545E0,-2.921175385E0,-3.411405945E-1,3.412092956E0
1.099481833E0,2.743345184E0,-2.391876068E0,-6.734495544E-1,3.701425162E0
1.109547833E0,4.578229523E0,-2.782264252E0,-8.164022827E-1,5.419196676E0
1.119612833E0,8.029752045E0,-3.475622406E0,-2.041754150E-1,8.752060135E0
1.129677833E0,1.234348160E1,-3.831432495E0,1.277443542E0,1.298742757E1
1.139742833E0,1.529654068E1,-3.771407318E0,2.866089935E0,1.601318649E1
1.149807833E0,1.451262085E1,-4.649930420E0,2.868035889E0,1.550689030E1
1.159872833E0,1.263522491E1,-5.844596100E0,2.944676514E0,1.422952325E1
1.169937833E0,1.119731506E1,-6.827751617E0,3.001857605E0,1.345396618E1
1.180002833E0,1.071007828E1,-7.752378845E0,2.377056885E0,1.343337463E1
1.190067833E0,1.077309723E1,-8.712182922E0,1.171763306E0,1.390448792E1
1.200132833E0,1.134625534E1,-9.484726410E0,7.450007629E-1,1.480717973E1
1.210198833E0,1.216834579E1,-9.709708557E0,1.460961914E-1,1.556818627E1
1.220263833E0,1.306273590E1,-9.664502563E0,-4.469705200E-1,1.625538254E1
1.230328833E0,1.308488983E1,-9.608069916E0,-4.282594299E-1,1.623923507E1
1.240393833E0,1.139041351E1,-9.154962158E0,-4.640350342E-1,1.462088166E1
1.250458833E0,1.011371841E1,-9.240434418E0,-1.169368286E0,1.374919454E1
1.260523833E0,9.860145721E0,-9.176068268E0,-3.808081055E-1,1.347470658E1
1.270588833E0,1.062310913E1,-9.011710052E0,1.009351044E0,1.396710977E1
1.280653833E0,1.029109955E1,-8.763226776E0,1.468596039E0,1.359623653E1
1.290718833E0,7.992479553E0,-9.071735229E0,2.049088898E0,1.226274336E1
1.300783833E0,5.605243835E0,-7.982151031E0,-7.810757446E-1,9.784864479E0
1.310849833E0,6.105054474E0,-6.887627106E0,-9.743238831E-1,9.255290612E0
1.320914833E0,6.681206360E0,-6.490802307E0,1.660496979E0,9.461832974E0
1.330979833E0,6.632856903E0,-7.096293182E0,1.886526947E0,9.895006395E0
1.341044833E0,7.247628479E0,-7.326364746E0,2.727927246E0,1.066045618E1
1.351109833E0,8.610095215E0,-6.734046478E0,3.425476685E0,1.145491214E1
1.361174833E0,8.444539490E0,-5.939798126E0,1.507215729E0,1.043375044E1
1.371239833E0,8.216713257E0,-4.828808441E0,2.582130432E-1,9.534067426E0
1.381304833E0,8.492589569E0,-4.609065399E0,-6.641688538E-1,9.685488202E0
1.391369833E0,1.124282043E1,-4.236939240E0,-8.381071472E-1,1.204388181E1
1.401435833E0,1.020218445E1,-4.196074219E0,9.166937256E-1,1.106941434E1
1.411500833E0,3.587290192E0,-6.159840546E0,7.065307617E-2,7.128623873E0
1.421565833E0,5.737568665E-1,-8.232879639E0,4.960684204E-1,8.267743826E0
1.431630833E0,3.602259064E0,-7.522007904E0,1.832788696E0,8.539085881E0
1.441695833E0,5.264552307E0,-5.187312927E0,2.525997162E0,7.810530588E0
1.451760833E0,4.380341034E0,-4.326004028E0,3.293600922E0,6.982084607E0
1.461825833E0,3.320245514E0,-3.597019958E0,3.450624390E0,5.989106071E0
1.471890833E0,4.703219604E0,-1.868115234E0,3.770209808E0,6.310674384E0
1.481955833E0,6.148164825E0,-9.370513916E-2,3.307971039E0,6.982219115E0
1.492020833E0,6.250851288E0,3.956272888E-1,2.058668976E0,6.593009990E0
1.502086833E0,6.298452301E0,2.579136658E-1,8.147557068E-1,6.356166117E0
1.512151833E0,5.642666016E0,-7.644602966E-1,3.697311401E-1,5.706205431E0
1.522216833E0,5.490881653E0,-1.640139313E0,3.309617615E-1,5.740154526E0
1.532281833E0,5.721551971E0,-1.941013641E0,-3.957769775E-1,6.054777480E0
1.542346833E0,5.540129242E0,-2.524799652E0,-8.328680420E-1,6.145023554E0
1.552411833E0,4.988077240E0,-4.524191895E0,1.351689148E-1,6.735539881E0
1.562476833E0,4.437222748E0,-6.996151428E0,5.074447632E-1,8.300155463E0
1.572541833E0,5.367388458E0,-7.403155060E0,2.243833923E-1,9.146907215E0
1.582606833E0,7.056176605E0,-6.861281891E0,4.555027771E-1,9.852629103E0
1.592672833E0,8.587791595E0,-6.012696533E0,2.454895020E-1,1.048632200E1
1.602737833E0,1.001567230E1,-5.961353302E0,-3.344046021E-1,1.166032810E1
1.612802833E0,1.336780151E1,-4.638703766E0,-2.921923828E-1,1.415277592E1
1.622867833E0,1.397448990E1,-1.840722198E0,-1.166075134E-1,1.409568102E1
1.632932833E0,1.829375793E1,-3.980522461E0,4.917573853E0,1.935687658E1
1.642997833E0,1.992970596E1,-1.265408569E1,9.319769440E0,2.538064552E1
1.653062833E0,1.221909027E1,-1.020383102E1,7.394473114E0,1.755285069E1
1.663127833E0,6.079308014E0,-6.633904724E0,5.843997345E0,1.072935146E1
1.673192833E0,6.004763031E0,-9.097631378E0,2.759810944E0,1.124458235E1
1.683257833E0,7.514074402E0,-9.875563660E0,-3.366948395E0,1.285785414E1
1.693323833E0,8.808432770E0,-8.561147003E0,-4.153113556E0,1.296649830E1
1.703388833E0,8.932674408E0,-1.055335419E1,-1.748663635E0,1.393641924E1
1.713453833E0,9.148974609E0,-1.346734451E1,1.802850952E0,1.638057924E1
1.723518833E0,9.435329132E0,-1.274240204E1,3.894002380E0,1.632658875E1
1.733583833E0,1.135927826E1,-1.115884506E1,4.914430389E0,1.666447274E1
1.743648833E0,1.298310150E1,-8.939560089E0,4.488715668E0,1.638979034E1
1.753713833E0,1.012030472E1,-3.577111359E0,-4.296215973E0,1.156173711E1
1.763778833E0,8.687484283E0,-6.138435059E0,2.000290375E0,1.082376689E1
1.773843833E0,8.594826965E0,-7.505691833E0,3.704197083E0,1.199698031E1
1.783908833E0,8.191864929E0,-8.263715515E0,5.265749817E0,1.277199148E1
1.793974833E0,1.055021072E1,-8.468639374E0,7.143295441E0,1.529874076E1
1.804039833E0,1.299986664E1,-5.148992615E0,1.310345123E1,1.916270053E1
1.814104833E0,1.490839783E1,-7.487429810E-1,7.723937988E0,1.680714610E1
1.824169833E0,1.518337601E1,4.266577606E0,1.398541718E0,1.583333542E1
1.834234833E0,1.641905640E1,9.455986176E0,-1.688039703E0,1.902237013E1
1.844300083E0,1.585458023E1,9.868079224E0,-2.410437469E0,1.882968164E1
1.854365083E0,1.277593231E1,7.119345245E0,-3.547023926E0,1.504961468E1
1.864430083E0,9.782906342E0,2.108066254E0,-2.408192139E0,1.029313311E1
1.874495083E0,7.153025208E0,-2.651585999E0,5.197192383E-1,7.646357696E0
1.884561083E0,4.957989807E0,-5.726192322E0,1.585502930E0,7.738524470E0
1.894626083E0,3.838467865E0,-7.655829620E0,1.373394012E0,8.673625184E0
1.904691083E0,4.162843323E0,-8.534801788E0,1.659898224E0,9.639884243E0
1.914756083E0,5.028493195E0,-8.593030701E0,1.752854919E0,1.010932346E1
1.924821083E0,6.153553619E0,-6.978787537E0,1.166075134E0,9.377069310E0
1.934886083E0,5.523364105E0,-6.155050507E0,4.058061218E-1,8.279907994E0
1.944951083E0,5.779032440E0,-7.573650513E0,9.349557495E-1,9.572436486E0
1.955016083E0,6.695726166E0,-7.888894958E0,3.432362366E-1,1.035302969E1
1.965081083E0,7.706873474E0,-6.671027527E0,-8.783734131E-1,1.023083803E1
1.975147083E0,8.540639648E0,-7.109316101E0,-3.588038635E-1,1.111816717E1
1.985212083E0,7.980654144E0,-8.721763000E0,-1.108444977E0,1.187386376E1
1.995277083E0,9.727371826E0,-5.684129791E0,-9.879455566E-3,1.126637438E1
2.005342083E0,1.014874557E1,-3.494183807E0,1.607207794E0,1.085308593E1
2.015407083E0,9.104966125E0,-4.455484772E0,2.372416534E0,1.041057697E1
2.025472083E0,7.552843781E0,-7.713160400E0,2.832409973E0,1.116068272E1
2.035537083E0,7.379803619E0,-9.658065948E0,3.149899750E0,1.255633735E1
2.045602083E0,7.259304199E0,-1.120135666E1,4.720583496E0,1.415810005E1
2.055667083E0,6.046825562E0,-1.243778549E1,2.097737732E0,1.398796307E1
2.065732083E0,6.224506073E0,-1.048210236E1,-1.113235016E0,1.224165993E1
2.075798083E0,6.867419128E0,-7.750133514E0,-3.673810272E0,1.098739718E1
2.085863083E0,7.559280396E0,-6.607559509E0,-4.491260376E0,1.099881732E1
2.095928083E0,7.538922729E0,-6.280938721E0,-4.213438110E0,1.067888608E1
2.105993083E0,7.111262054E0,-6.181695099E0,-3.959116974E0,1.022047012E1
2.116058083E0,7.852520599E0,-5.944588165E0,-3.567231903E0,1.047498695E1
2.126123083E0,1.066621948E1,-5.590274963E0,-2.567460938E0,1.231305274E1
2.136188083E0,1.312261139E1,-5.917644196E0,-2.363285522E0,1.458789090E1
2.146253083E0,1.590801910E1,-6.814429321E0,-2.384691010E0,1.746963852E1
2.156318083E0,1.771251663E1,-7.807015228E0,-8.701405334E-1,1.937627097E1
2.166383083E0,1.482112930E1,-7.193590851E0,-2.406994629E-1,1.647639400E1
2.176449083E0,1.217433334E1,-6.796616364E0,-5.977070618E-1,1.395584609E1
2.186514083E0,1.051024384E1,-6.967411194E0,-1.365610199E0,1.268364835E1
2.196579083E0,7.260352020E0,-6.551575928E0,-2.477048950E0,1.008819261E1
2.206644083E0,5.165458374E0,-6.335425415E0,-3.150648193E0,8.760488539E0
2.216709083E0,1.343007202E0,-6.218368835E0,-3.711382141E0,7.365197670E0
2.226774083E0,-1.645977173E0,-6.459517365E0,-3.623215485E0,7.586982001E0
2.236839083E0,-1.458117828E0,-6.284082184E0,-2.699336700E0,6.993011877E0
2.246904083E0,4.135899353E-1,-3.791016541E0,-2.123484192E0,4.364865194E0
2.256969083E0,2.745291138E0,-1.050964508E0,-3.094065857E-1,2.955821758E0
2.267035083E0,5.292095032E0,-4.092489624E-1,1.084943848E0,5.417643186E0
2.277100083E0,6.949448547E0,-3.305126953E-1,5.766009521E-1,6.981156237E0
2.287165083E0,8.885372772E0,-1.480870514E0,-8.000862122E-1,9.043393430E0
2.297230083E0,1.077414505E1,-3.065774689E0,-2.217788086E0,1.141927143E1
2.307295083E0,1.142693756E1,-3.678151245E0,-1.101259918E0,1.205472820E1
2.317360083E0,1.214783844E1,-2.184706879E0,3.140469360E-1,1.234672217E1
2.327425083E0,1.270767426E1,3.065625000E-1,-8.217910767E-1,1.273790823E1
2.337490083E0,1.109447891E1,1.786834259E0,-3.824397125E0,1.187039394E1
2.347555083E0,5.578150177E0,1.881587219E0,-7.003486176E0,9.149040850E0
2.357621083E0,-5.867797852E-1,9.096583557E-1,-7.681725769E0,7.757622035E0
2.367686083E0,-1.910926208E0,-5.239105225E-1,-6.070476379E0,6.385671827E0
2.377751083E0,1.329834595E0,-1.340911560E0,-4.418361969E0,4.805041764E0
2.387816083E0,4.281546478E0,-1.033899994E0,-4.642146606E0,6.399227653E0
2.397881083E0,7.955656128E0,-8.499325562E-1,-5.997877350E0,9.999469110E0
2.407946083E0,1.253343658E1,-2.168690186E0,-7.168592834E0,1.460064974E1
2.418011083E0,1.632086060E1,-4.465214539E0,-4.976850586E0,1.763739417E1
2.428076083E0,1.789663376E1,-5.057532806E0,7.783813477E-3,1.859753206E1
2.438141083E0,1.594843506E1,-4.317322083E0,8.265811157E-1,1.654312809E1
2.448206083E0,1.078252762E1,-3.755989380E0,-2.861150208E0,1.177100414E1
2.458272083E0,4.656217346E0,-3.184178467E0,-4.705614624E0,7.345894192E0
2.468337083E0,8.128097534E-2,-3.090024261E0,-4.551285553E0,5.501732156E0
2.478402083E0,-1.954934692E-1,-3.123255157E0,-4.574786682E0,5.542708152E0
2.488467083E0,2.297272797E0,-5.481750641E0,-2.946921844E0,6.634108889E0
2.498532083E0,6.745722198E0,-9.550140381E0,1.423689423E0,1.177866040E1
2.508597083E0,1.279988251E1,-1.357781479E1,5.734125824E0,1.952112306E1
2.518662083E0,1.728021561E1,-1.577464645E1,8.211025085E0,2.479649683E1
2.528727083E0,1.826097610E1,-1.584919144E1,6.557114410E0,2.505306103E1
2.538792083E0,1.659000092E1,-1.449555634E1,8.316705322E-1,2.204633665E1
2.548857083E0,1.421578812E1,-1.492112137E1,-5.181774445E0,2.125039484E1
2.558923083E0,1.026714935E1,-1.294403275E1,-9.805808716E0,1.921239767E1
2.568988083E0,5.148244171E0,-9.179511108E0,-1.171628586E1,1.574926019E1
2.579053083E0,2.225272522E0,-5.914800110E0,-1.277278885E1,1.425064325E1
2.589118083E0,8.147557068E-1,-5.712870026E0,-1.149444717E1,1.286168833E1
2.599183083E0,1.627266083E0,-6.127507782E0,-7.920628967E0,1.014547731E1
2.609248083E0,2.822680206E0,-6.051016846E0,-4.234244843E0,7.906399800E0
2.619313083E0,3.159629517E0,-6.229745178E0,-1.216969299E-1,6.986257497E0
2.629378083E0,3.006947021E0,-6.482120361E0,8.057743835E-1,7.190889175E0
2.639443083E0,3.005599823E0,-6.124364319E0,7.749385071E-1,6.866003080E0
2.649509083E0,3.457959137E0,-5.233566742E0,1.423240356E0,6.432209212E0
2.659574083E0,4.175267487E0,-4.473597107E0,1.383273468E0,6.273705057E0
2.669639083E0,4.689747620E0,-3.428320770E0,6.971003723E-1,5.850902919E0
2.679704083E0,4.010609894E0,-2.940335541E0,9.654922485E-2,4.973920643E0
2.689769083E0,3.190315704E0,-3.099754028E0,4.778063965E-1,4.473800206E0
2.699834083E0,2.330503693E0,-3.407514038E0,1.263223114E0,4.317190292E0
2.709899083E0,2.073937225E0,-3.778891754E0,1.839674377E0,4.686751574E0
2.719964083E0,2.377955017E0,-4.262236633E0,2.569855957E0,5.515930640E0
2.730029083E0,2.907553711E0,-4.993915100E0,3.182681580E0,6.597159892E0
2.740094083E0,3.906127167E0,-5.784271545E0,3.080893250E0,7.629385950E0
2.750160083E0,5.180876312E0,-6.217021637E0,2.373464355E0,8.433633288E0
2.760225083E0,5.601501617E0,-6.230493622E0,1.606758728E0,8.530975604E0
2.770290083E0,5.265600128E0,-6.134243774E0,1.120869141E0,8.161607625E0
2.780355083E0,4.596042480E0,-6.064937897E0,7.081773376E-1,7.642551492E0
2.790420083E0,3.991599426E0,-5.812712402E0,1.303788757E-1,7.052481131E0
2.800485083E0,3.587739258E0,-5.378914490E0,-5.673202515E-2,6.465896117E0
2.810550083E0,3.046464844E0,-5.052593079E0,1.064286804E-1,5.900929751E0
2.820615083E0,2.695744171E0,-4.985233154E0,4.505630493E-2,5.667593520E0
2.830680083E0,2.255509644E0,-4.932692413E0,-1.263372803E-1,5.425379185E0
2.840746083E0,1.608854370E0,-5.406906281E0,-1.725910950E-1,5.643831641E0
2.850810250E0,7.903564453E-2,-7.770042114E0,1.761836243E-1,7.772441171E0
2.860875250E0,1.335223389E-1,-8.073161774E0,2.653981018E-1,8.078626455E0
2.870940250E0,1.343306580E0,-4.551584930E0,-1.454974365E-1,4.747901373E0
2.881005250E0,8.207432556E-1,-3.825145569E0,6.982978821E-1,3.974038003E0
2.891070250E0,9.725276184E-1,-3.419339447E0,1.482217712E0,3.851579101E0
2.901135250E0,1.509461060E0,-4.023632812E0,1.365909576E0,4.509301794E0
2.911200250E0,1.347797241E0,-4.023932190E0,1.013392639E0,4.362975168E0
2.921265250E0,3.990701294E-1,-3.353775787E0,1.222208405E0,3.591777051E0
2.931330250E0,3.799099731E-1,-4.357887726E0,1.294358368E0,4.561894409E0
2.941396250E0,1.600172424E-1,-5.381459198E0,1.023870850E0,5.480330294E0
2.951461250E0,6.608757019E-1,-1.087189178E1,2.356998596E0,1.114406703E1
2.961526250E0,-8.391549683E-1,-1.834165833E1,1.874402161E0,1.845627250E1
2.971591250E0,-3.884422302E0,-2.233849686E1,3.896397400E-1,2.267705884E1
2.981656250E0,-2.953657837E0,-2.825374603E1,-1.892065430E-1,2.840834488E1
2.991721250E0,-1.788780212E0,-3.145289337E1,1.806892548E0,3.155549234E1
3.001786250E0,-1.501078491E0,-3.267165894E1,6.573131104E0,3.336010472E1
3.011851250E0,-2.481689301E0,-3.077600098E1,9.979747009E0,3.244867283E1
3.021916250E0,-4.239184570E0,-2.551519089E1,9.593849487E0,2.758690994E1
3.031981250E0,-3.671415253E0,-1.899175644E1,6.026168518E0,2.026032600E1
3.042047250E0,-1.647474060E0,-1.396550858E1,3.371139679E0,1.446078087E1
3.052112250E0,-3.083587646E-1,-1.122545654E1,2.041454773E0,1.141374160E1
3.062177250E0,9.139993286E-1,-1.015727783E1,6.514453125E-1,1.021910313E1
3.072242250E0,2.221230927E0,-1.042312500E1,-5.219196625E0,1.186656711E1
3.082307250E0,2.687062225E0,-1.265393600E1,-8.262368317E0,1.534956449E1
3.092372250E0,1.411714325E0,-1.396206573E1,-5.495821381E0,1.507104076E1
3.102437250E0,1.782792664E-1,-1.432356400E1,-3.508104858E0,1.474798524E1
3.112502250E0,-8.608598328E-1,-1.427910645E1,-3.868555298E0,1.481889607E1
3.122567250E0,-1.460961914E0,-1.409019928E1,-6.849007416E0,1.573458064E1
3.132632250E0,-2.221530304E0,-1.447534836E1,-9.712253265E0,1.757267113E1
3.142698250E0,-4.005819855E0,-1.470062988E1,-8.100554810E0,1.725613224E1
3.152763250E0,-5.368436279E0,-1.397344208E1,-3.589385834E0,1.539353378E1
3.162828250E0,-6.018235016E0,-1.301932617E1,2.613565063E-1,1.434539347E1
3.172893250E0,-6.034551086E0,-1.244452148E1,2.845432892E0,1.412014200E1
3.182958250E0,-5.962700500E0,-1.222208405E1,4.390669556E0,1.429024544E1
3.193023250E0,-6.368356934E0,-1.205563019E1,5.508544922E0,1.470504187E1
3.203088250E0,-6.823859711E0,-1.182930084E1,6.123615875E0,1.496649896E1
3.213153250E0,-7.081473999E0,-1.162332916E1,6.462211761E0,1.506682567E1
3.223218250E0,-6.899003448E0,-1.125135269E1,6.571933594E0,1.474379521E1
3.233283250E0,-5.857020264E0,-1.030412247E1,6.069578247E0,1.331613331E1
3.243349250E0,-4.888833618E0,-9.022637329E0,4.923411713E0,1.138194454E1
3.253414250E0,-4.368964691E0,-7.560028839E0,3.657344513E0,9.466681436E0
3.263479250E0,-3.732637939E0,-6.727011108E0,2.358495483E0,8.046599616E0
3.273544250E0,-1.377884674E0,-6.886130219E0,-3.023861847E0,7.645985615E0
3.283609250E0,6.572831726E-1,-8.049211578E0,-6.524332581E0,1.038213580E1
3.293674250E0,4.595443726E-2,-8.678203583E0,-2.791544952E0,9.116252106E0
3.303739250E0,1.761836243E-1,-8.796307983E0,-1.908531189E-1,8.800142028E0
3.313804250E0,8.722361755E-1,-8.712781677E0,1.059496765E0,8.820198064E0
3.323869250E0,1.635948029E0,-8.144862671E0,1.760339355E0,8.491990846E0
3.333935250E0,1.825154572E0,-7.446265411E0,2.073637848E0,7.942167948E0
3.344000250E0,1.238823853E0,-6.558012543E0,1.710642700E0,6.889739581E0
3.354065250E0,9.280700684E-2,-5.592819672E0,1.302890625E0,5.743323863E0
3.364130250E0,-6.418652344E-1,-4.767436066E0,1.250349884E0,4.970292995E0
3.374195250E0,-9.921368408E-1,-4.114793243E0,1.490450592E0,4.487460520E0
3.384260250E0,-1.150956573E0,-3.592978363E0,1.792223053E0,4.176871799E0
3.394325250E0,-1.501976624E0,-3.313958588E0,1.901196442E0,4.105216585E0
3.404390250E0,-2.036964111E0,-3.247496796E0,2.026186523E0,4.335999315E0
3.414455250E0,-2.755170593E0,-3.204536133E0,2.017504578E0,4.682984256E0
3.424520250E0,-3.457959137E0,-3.072810059E0,1.741478577E0,4.942913178E0
3.434586250E0,-4.086202698E0,-2.855911102E0,1.408570862E0,5.180478027E0
3.444651250E0,-4.430935822E0,-2.526296539E0,1.103505249E0,5.218533347E0
3.454716250E0,-4.541256409E0,-2.179916840E0,7.253915405E-1,5.089326093E0
3.464781250E0,-4.317920837E0,-1.968406677E0,3.932322693E-1,4.761690543E0
3.474846250E0,-3.912713470E0,-2.087858276E0,2.320175171E-2,4.434976573E0
3.484911250E0,-3.478616180E0,-2.501148834E0,-6.194119263E-1,4.328993781E0
3.494976250E0,-3.008892975E0,-3.229983215E0,-1.511107635E0,4.665798409E0
3.505041250E0,-2.589614868E0,-4.406237183E0,-2.843786316E0,5.848773537E0
3.515106250E0,-2.094743958E0,-5.978866882E0,-5.422473907E0,8.338946260E0
3.525172250E0,-9.050180054E-1,-8.128396912E0,-9.766889648E0,1.273899632E1
3.535237250E0,2.930456085E0,-1.170416107E1,-1.526600418E1,1.945831038E1
3.545302250E0,6.769822083E0,-1.731973343E1,-1.639226212E1,2.478931049E1
3.555367250E0,7.570656738E0,-2.153631500E1,-9.824669495E0,2.485260224E1
3.565432250E0,8.077353058E0,-2.282857773E1,-4.136498108E0,2.456620056E1
3.575497250E0,7.970774689E0,-2.162433197E1,-4.783452759E0,2.353776545E1
3.585562250E0,6.785240021E0,-1.901211411E1,-8.471034393E0,2.189197087E1
3.595627250E0,5.080135803E0,-1.633942200E1,-8.381969604E0,1.905365858E1
3.605692250E0,3.031495972E0,-1.510868134E1,-5.096451874E0,1.623071290E1
3.615757250E0,1.077758789E-1,-1.586475906E1,-2.544857941E0,1.606793384E1
3.625823250E0,-6.541397095E-1,-1.869956406E1,-3.395089874E0,1.901652518E1
3.635888250E0,3.663332062E0,-2.325429245E1,-8.151299286E0,2.491236238E1
3.645953250E0,5.669011230E0,-2.480970795E1,-4.357139282E0,2.581944925E1
3.656018250E0,3.218307495E-2,-1.985635849E1,5.411546631E0,2.058059390E1
3.666083250E0,-3.066822510E0,-1.271441025E1,8.764573975E0,1.574418576E1
3.676148250E0,-3.547472992E0,-7.331753540E0,7.709418182E0,1.121491432E1
3.686213250E0,-3.943549347E0,-4.362228699E0,5.411396942E0,7.991485315E0
3.696278250E0,-3.574117584E0,-2.899021454E0,3.665278015E0,5.883273309E0
3.706343250E0,-3.306773529E0,-2.169438629E0,2.763702850E0,4.824859437E0
3.716408250E0,-3.357967072E0,-1.952839050E0,2.242337036E0,4.485264607E0
3.726474250E0,-3.378324738E0,-2.213297424E0,1.907483368E0,4.466570980E0
3.736539250E0,-3.528462524E0,-3.126997375E0,1.778152313E0,5.038847688E0
3.746604250E0,-4.413871307E0,-4.675227814E0,1.920955353E0,6.710445924E0
3.756669250E0,-5.723198547E0,-6.459966431E0,2.286944275E0,8.928397505E0
3.766734250E0,-6.798712006E0,-8.297994232E0,2.518363037E0,1.101913543E1
3.776799250E0,-7.431446228E0,-9.744885406E0,2.388433228E0,1.248574379E1
3.786864250E0,-7.517816620E0,-1.057910065E1,2.323019257E0,1.318451196E1
3.796929250E0,-6.667135620E0,-1.078492264E1,2.436782684E0,1.291135793E1
3.806994250E0,-5.315446472E0,-1.047806076E1,2.418820038E0,1.199559998E1
3.817060250E0,-4.334236908E0,-1.005983047E1,2.487976227E0,1.123280127E1
3.827125250E0,-3.536246338E0,-9.541458435E0,2.566263428E0,1.049429251E1
3.837190250E0,-2.821931763E0,-9.054371338E0,2.488125916E0,9.804881936E0
3.847255958E0,-2.273621979E0,-8.806187439E0,2.386786652E0,9.402927450E0
3.857320958E0,-1.781445465E0,-8.854686584E0,2.271975403E0,9.313479193E0
3.867385958E0,-1.348395996E0,-9.029373322E0,2.156415710E0,9.380718686E0
3.877450958E0,-9.086105347E-1,-9.402547302E0,2.077829132E0,9.672168463E0
3.887515958E0,-4.454736328E-1,-9.912387085E0,2.131567383E0,1.014876564E1
3.897580958E0,5.110372925E-1,-1.046458878E1,2.233505402E0,1.071248448E1
3.907645958E0,1.439257050E0,-1.090796677E1,2.113754425E0,1.120371178E1
3.917711958E0,2.224524078E0,-1.111064529E1,1.399888916E0,1.141729544E1
3.927776958E0,4.297563171E0,-1.070319260E1,-2.316283264E0,1.176403626E1
3.937841958E0,4.635709991E0,-9.962682495E0,-2.672692108E0,1.130876354E1
3.947906958E0,3.377725983E0,-9.577383728E0,-7.795788574E-1,1.018543348E1
3.957971958E0,2.715054016E0,-9.385632477E0,3.516188049E-1,9.776770995E0
3.968036958E0,2.361040192E0,-9.199719086E0,8.343649292E-1,9.534437942E0
3.978101958E0,1.951342163E0,-8.910370789E0,1.075663147E0,9.184742513E0
3.988166958E0,1.615590363E0,-8.581953735E0,1.197060699E0,8.814364212E0
3.998231958E0,1.305585022E0,-8.303981781E0,1.150357819E0,8.484337852E0
4.008297958E0,9.400451660E-1,-8.162376251E0,9.514215088E-1,8.271231702E0
4.018362958E0,6.285429382E-1,-8.171507263E0,7.533833313E-1,8.230199489E0
4.028427958E0,6.066883850E-1,-8.339607697E0,6.697073364E-1,8.388422691E0
4.038492958E0,8.036787415E-1,-8.781937866E0,5.683680725E-1,8.836932413E0
4.048557958E0,8.319699097E-1,-9.284442902E0,4.526586914E-1,9.332628452E0
4.058622958E0,6.481521606E-1,-9.735155640E0,3.314108276E-1,9.762335258E0
4.068687958E0,3.959266663E-1,-1.003064117E1,6.062393188E-2,1.003863514E1
4.078752958E0,1.643582153E-1,-1.023975632E1,-5.771997070E-1,1.025732824E1
4.088817958E0,-1.749861145E-1,-1.066936295E1,-1.736538849E0,1.081117445E1
4.098882958E0,-4.270619202E-1,-1.134026779E1,-2.865191803E0,1.170441710E1
4.108948958E0,-2.160008240E-1,-1.184397034E1,-3.234174500E0,1.227950220E1
4.119013958E0,1.977388000E-1,-1.206925186E1,-2.808010712E0,1.239317818E1
4.129078958E0,7.863148499E-1,-1.178184952E1,-1.817221069E0,1.194707335E1
4.139143958E0,1.582509155E0,-1.083417023E1,-8.887019348E-1,1.098514319E1
4.149208958E0,2.606230316E0,-9.965975647E0,-4.269122314E-1,1.030996417E1
4.159273958E0,3.949087830E0,-1.022778122E1,-3.387455750E-1,1.096893577E1
4.169338958E0,5.799988861E0,-1.155941208E1,-5.345384216E-1,1.294394104E1
4.179403958E0,7.904761963E0,-1.280841476E1,-7.629634094E-1,1.507059599E1
4.189468958E0,9.225615234E0,-1.352497467E1,-7.325765991E-1,1.638821481E1
4.199533958E0,9.490414581E0,-1.349054626E1,-1.066232758E0,1.652875252E1
4.209599958E0,9.472751312E0,-1.320628738E1,-2.836301880E0,1.649798934E1
4.219664958E0,8.772806854E0,-1.391521317E1,-4.595443726E0,1.707961945E1
4.229729958E0,5.637127533E0,-1.541269913E1,-3.957171021E0,1.688157883E1
4.239794958E0,1.741478577E0,-1.657712769E1,-2.055375824E0,1.679459674E1
4.249859958E0,-6.649172974E-1,-1.769679932E1,1.980381775E-1,1.771039356E1
4.259924958E0,-2.031275940E0,-1.921299637E1,2.033371582E0,1.942678335E1
4.269989958E0,-3.646566925E0,-2.047621948E1,2.675236816E0,2.096973788E1
4.280054958E0,-5.370531921E0,-2.091884903E1,3.221900024E0,2.183624275E1
4.290119958E0,-6.832242279E0,-2.045975372E1,3.773952026E0,2.189803121E1
4.300184958E0,-7.430997162E0,-1.925206512E1,3.890559540E0,2.099995676E1
4.310250958E0,-6.446344757E0,-1.725761261E1,3.609294434E0,1.877252141E1
4.320315958E0,-4.747078400E0,-1.499387009E1,2.703078918E0,1.595799264E1
4.330380958E0,-2.938239899E0,-1.312291077E1,1.894310760E0,1.358059108E1
4.340445958E0,-1.411414948E0,-1.146435974E1,-1.261875916E-1,1.155160421E1
4.350510958E0,-2.019151154E0,-1.022433838E1,-1.905687103E0,1.059460759E1
4.360575958E0,-2.837948456E0,-9.570647736E0,-1.640738068E0,1.011648511E1
4.370640958E0,-2.401007080E0,-9.323511658E0,-5.489085388E-1,9.643339941E0
4.380705958E0,-1.653760986E0,-9.541009369E0,8.514294434E-1,9.720633584E0
4.390770958E0,-9.493258667E-1,-9.614356842E0,2.102677460E0,9.887281203E0
4.400836958E0,2.785707092E-1,-9.585317230E0,1.617686005E0,9.724855580E0
4.410901958E0,2.698887634E-1,-9.133406982E0,4.272116089E-1,9.147375187E0
4.420966958E0,-6.342311096E-1,-8.369096375E0,4.475692749E-1,8.405018827E0
4.431031958E0,-1.425934753E0,-7.526498566E0,1.353635101E0,7.779061548E0
4.441096958E0,-1.800755310E0,-6.554719391E0,2.421664124E0,7.216060082E0
4.451161958E0,-1.829046478E0,-5.608237610E0,3.090024261E0,6.659278493E0
4.461226958E0,-1.826950836E0,-4.677323456E0,3.433410187E0,6.083042789E0
4.471291958E0,-1.951491852E0,-3.804787903E0,3.942800903E0,5.816391527E0
4.481356958E0,-2.372416534E0,-3.119962006E0,4.443509674E0,5.925141463E0
4.491421958E0,-3.020718384E0,-2.537972260E0,4.672383728E0,6.115326029E0
4.501487958E0,-3.792962494E0,-2.060315552E0,4.316573639E0,6.104446956E0
4.511552958E0,-4.694088593E0,-1.643731842E0,3.295846252E0,5.966483437E0
4.521617958E0,-5.680387573E0,-1.256636810E0,2.048789520E0,6.167939490E0
4.531682958E0,-6.606212311E0,-9.172924805E-1,1.412462769E0,6.817515505E0
4.541747958E0,-7.075486450E0,-6.069877625E-1,1.255439301E0,7.211592784E0
4.551812958E0,-6.934779053E0,-4.129911804E-1,1.225651245E0,7.054356328E0
4.561877958E0,-6.390810242E0,-4.763095093E-1,1.315314789E0,6.542123454E0
4.571942958E0,-5.791905670E0,-8.520281982E-1,1.067430267E0,5.950758836E0
4.582007958E0,-5.534890137E0,-1.531165924E0,4.236190796E-2,5.742932391E0
4.592073958E0,-5.570066986E0,-2.550695801E0,-1.520987091E0,6.312297286E0
4.602138958E0,-5.258564758E0,-3.874093781E0,-3.657494202E0,7.485878023E0
4.612203958E0,-3.984264679E0,-5.812562714E0,-8.546776886E0,1.107734831E1
4.622268958E0,3.672463074E0,-1.019275406E1,-1.941777054E1,2.223576023E1
4.632333958E0,1.450992645E1,-1.791190201E1,-2.023117905E1,3.067042231E1
4.642398958E0,1.466500397E1,-2.464939133E1,-6.353687439E0,2.937727316E1
4.652463958E0,1.388557480E1,-2.675281723E1,6.755451965E-1,3.014927493E1
4.662528958E0,1.086814957E1,-2.550306610E1,-3.609743500E0,2.795627485E1
4.672593958E0,8.648116150E0,-2.129471741E1,-9.378148041E0,2.482346799E1
4.682658958E0,8.507558441E0,-1.591445572E1,-7.806117096E0,1.966173735E1
4.692724958E0,6.678212585E0,-1.333980972E1,-2.728076935E0,1.516546902E1
4.702789958E0,4.803361359E0,-1.396685577E1,-3.079096985E-1,1.477295329E1
4.712854958E0,3.222648468E0,-1.508143799E1,-7.439529419E-2,1.542208707E1
4.722919958E0,4.234993286E0,-1.598031876E1,-1.752555542E0,1.662459643E1
4.732984958E0,8.475375366E0,-1.784648804E1,-4.361480255E0,2.023244011E1
4.743049958E0,9.214687958E0,-1.859732666E1,-3.059637451E0,2.097933303E1
4.753114958E0,5.031486969E0,-1.661230453E1,-4.170327759E-1,1.736255855E1
4.763179958E0,3.861968994E-1,-1.288385788E1,2.756218414E0,1.318103493E1
4.773244958E0,-2.889890442E0,-8.941506042E0,5.288801880E0,1.078301546E1
4.783309958E0,-4.999154205E0,-5.989943848E0,4.861590271E0,9.192716140E0
4.793375958E0,-5.263055420E0,-4.382436676E0,3.058889008E0,7.500820324E0
4.803440958E0,-4.493356018E0,-3.520229645E0,2.300416260E0,6.154200194E0
4.813505958E0,-3.877087555E0,-3.161725159E0,1.900447998E0,5.351636804E0
4.823570958E0,-3.430416412E0,-3.253783722E0,1.465901642E0,4.950124533E0
4.833635958E0,-3.298989716E0,-3.800746307E0,1.162482605E0,5.165304584E0
4.843700958E0,-3.869603119E0,-4.758604431E0,1.265917511E0,6.262642539E0
4.853765583E0,-4.851112061E0,-6.152356110E0,1.556163940E0,7.987892096E0
4.863830583E0,-5.568121033E0,-7.726782074E0,1.585652618E0,9.655124405E0
4.873895583E0,-5.907615051E0,-9.014703827E0,1.531614990E0,1.088625947E1
4.883961583E0,-5.915099487E0,-9.839189301E0,1.519939270E0,1.158051223E1
4.894026583E0,-5.876330109E0,-1.034902908E1,1.801503754E0,1.203657236E1
4.904091583E0,-5.346132660E0,-1.045934967E1,2.172582092E0,1.194567884E1
4.914156583E0,-4.539011078E0,-1.013602203E1,2.241438904E0,1.132985492E1
4.924221583E0,-3.575015717E0,-9.714199219E0,2.059267731E0,1.055400338E1
4.934286583E0,-2.819686432E0,-9.524244232E0,1.736688538E0,1.008354833E1
4.944351583E0,-2.307751007E0,-9.600286102E0,1.390757904E0,9.971229388E0
4.954416583E0,-1.812281342E0,-9.951455841E0,1.199605408E0,1.018601444E1
4.964481583E0,-1.156644745E0,-1.062550415E1,1.196611633E0,1.075504742E1
4.974546583E0,7.634124756E-3,-1.119896164E1,1.108744354E0,1.125371557E1
4.984612583E0,1.270258484E0,-1.147124542E1,9.003776550E-1,1.157642899E1
4.994677583E0,2.175276489E0,-1.154968231E1,7.852670288E-1,1.177894875E1
5.004742583E0,2.964884491E0,-1.149504593E1,4.581971741E-1,1.188009114E1
5.014807583E0,3.718118134E0,-1.100750977E1,-5.815406799E-1,1.163305047E1
5.024872583E0,4.090693359E0,-1.005548950E1,-1.853296051E0,1.101278110E1
5.034937583E0,3.522474976E0,-9.193132782E0,-1.813029785E0,1.001042443E1
5.045002583E0,2.947221222E0,-8.611891479E0,-9.500743103E-1,9.151689952E0
5.055067583E0,2.647245026E0,-8.225245514E0,-1.100212097E-1,8.641450958E0
5.065132583E0,2.203717346E0,-8.025261383E0,5.388793945E-1,8.339759074E0
5.075197583E0,1.781146088E0,-7.949668579E0,1.128353577E0,8.224529999E0
5.085263583E0,1.441951447E0,-7.875872040E0,1.623972931E0,8.169814713E0
5.095328583E0,1.162033539E0,-7.906558228E0,1.863025818E0,8.205781508E0
5.105393583E0,1.068178711E0,-8.047864380E0,1.755249939E0,8.306023669E0
5.115458583E0,1.084644470E0,-8.355325012E0,1.485211487E0,8.555335344E0
5.125523583E0,1.041833496E0,-8.785081329E0,1.245110779E0,8.933832987E0
5.135588583E0,8.927435303E-1,-9.213490448E0,1.101858673E0,9.321989583E0
5.145653583E0,7.711962891E-1,-9.554631042E0,1.034199371E0,9.641332191E0
5.155718583E0,6.881190491E-1,-9.646240540E0,1.042881317E0,9.726821979E0
5.165783583E0,7.530839539E-1,-9.526639252E0,1.038839722E0,9.612657221E0
5.175849583E0,8.604107666E-1,-9.594148865E0,1.040486298E0,9.688684682E0
5.185914583E0,9.970765686E-1,-1.002091141E1,9.764195251E-1,1.011761939E1
5.195979583E0,7.214996338E-1,-1.055829391E1,2.906954956E-1,1.058690871E1
5.206044583E0,1.344204712E-1,-1.118863312E1,-1.334175568E0,1.126870021E1
5.216109583E0,-9.834548950E-2,-1.159458893E1,-3.030298462E0,1.198444296E1
5.226174583E0,2.345622253E-1,-1.141735748E1,-4.015549622E0,1.210519352E1
5.236239583E0,1.127305756E0,-1.107771378E1,-3.368744659E0,1.163335727E1
5.246304583E0,2.315534821E0,-1.103101089E1,-1.961371307E0,1.144079894E1
5.256369583E0,3.150199127E0,-1.159803177E1,-1.202449493E0,1.207824409E1
5.266434583E0,3.984264679E0,-1.262938705E1,-1.171763306E0,1.329469111E1
5.276500583E0,5.488786011E0,-1.352033432E1,-1.070873108E0,1.463123307E1
5.286565583E0,7.034771118E0,-1.376193192E1,-1.166224823E0,1.549964048E1
5.296630583E0,8.381670227E0,-1.331136887E1,-1.748813324E0,1.582729557E1
5.306695583E0,9.787097626E0,-1.286754181E1,-3.473676453E0,1.653563849E1
5.316760583E0,1.036444702E1,-1.319491104E1,-5.686075745E0,1.771606324E1
5.326825583E0,8.487799530E0,-1.426503571E1,-5.604645081E0,1.751987531E1
5.336890583E0,5.020559692E0,-1.539383835E1,-4.090094604E0,1.670045366E1
5.346955583E0,1.904639282E0,-1.606025253E1,-2.250420227E0,1.632861762E1
5.357020583E0,6.975494385E-2,-1.676902863E1,-1.939965820E-1,1.677029581E1
5.367086583E0,-1.369352417E0,-1.761686554E1,1.545835419E0,1.773749375E1
5.377151583E0,-3.189567261E0,-1.817131256E1,2.662513275E0,1.864024990E1
5.387216583E0,-4.545447693E0,-1.836171661E1,3.437900848E0,1.922583923E1
5.397281583E0,-5.917494507E0,-1.839943817E1,4.545747070E0,1.985497123E1
5.407346583E0,-6.677464142E0,-1.782358566E1,4.845872955E0,1.964055035E1
5.417411583E0,-5.827232208E0,-1.625918884E1,4.588707733E0,1.787104070E1
5.427476583E0,-4.311933289E0,-1.418091064E1,4.262835388E0,1.542280004E1
5.437541583E0,-2.642305298E0,-1.197524734E1,3.425027618E0,1.273260148E1
5.447606583E0,-1.956132202E0,-1.022748184E1,1.885179749E0,1.058214254E1
5.457671583E0,-1.417701874E0,-9.061257019E0,-1.637594604E-1,9.172953425E0
5.467737583E0,-5.905220032E-1,-8.601712646E0,-1.475032654E0,8.747222303E0
5.477802583E0,5.478607178E-1,-8.724008331E0,-1.738484802E0,8.912395982E0
5.487867583E0,8.845106506E-1,-9.163195038E0,-3.501219177E-1,9.212442008E0
5.497932583E0,9.610015869E-1,-9.691296844E0,4.388873291E-1,9.748711744E0
5.507997583E0,6.640191650E-1,-9.974657593E0,2.764750671E-1,1.000055768E1
5.518062583E0,-1.767823792E-1,-9.675729218E0,2.692900085E-1,9.681090073E0
5.528127583E0,-8.445437622E-1,-8.945547638E0,8.384065247E-1,9.024356055E0
5.538192583E0,-1.154249725E0,-7.874375153E0,1.490749969E0,8.096938430E0
5.548257583E0,-1.399739227E0,-6.742728424E0,2.002535706E0,7.171736593E0
5.558322583E0,-1.677262115E0,-5.684429169E0,2.474204865E0,6.422432007E0
5.568388583E0,-2.202370148E0,-4.727020111E0,2.828667755E0,5.932665056E0
5.578453583E0,-2.663112030E0,-3.794758759E0,3.389850769E0,5.743121795E0
5.588518583E0,-2.961591339E0,-3.041824493E0,3.978726196E0,5.818417453E0
5.598583583E0,-3.265160065E0,-2.346370697E0,4.073628845E0,5.723738085E0
5.608648583E0,-3.606150970E0,-1.749112701E0,3.557951202E0,5.359359740E0
5.618713583E0,-4.137396240E0,-1.262474670E0,2.683020630E0,5.090234734E0
5.628778583E0,-5.006488953E0,-1.241518250E0,2.115550690E0,5.575110216E0
5.638843583E0,-5.669310608E0,-1.503473511E0,1.889221344E0,6.162034782E0
5.648908583E0,-5.923631744E0,-1.768422546E0,1.692979431E0,6.409595206E0
5.658974583E0,-5.635331268E0,-2.035467224E0,1.545386353E0,6.187754383E0
5.669039583E0,-5.033582611E0,-2.304308167E0,1.443598022E0,5.721080779E0
5.679104583E0,-4.460424500E0,-2.577041016E0,9.566606140E-1,5.239439535E0
5.689169583E0,-3.818708954E0,-2.919379120E0,1.769320679E-1,4.810053791E0
5.699234583E0,-3.328927460E0,-3.458557892E0,-5.278024292E-1,4.829281119E0
5.709299583E0,-2.758164368E0,-4.380490723E0,-1.437760162E0,5.372459766E0
5.719364583E0,-1.704206085E0,-6.015989685E0,-3.571273499E0,7.200725288E0
5.729429583E0,1.873504028E0,-9.250613251E0,-9.326056366E0,1.326872979E1
5.739494583E0,8.765472107E0,-1.457444229E1,-1.526061539E1,2.285025714E1
5.749559583E0,1.209559708E1,-2.110431335E1,-9.690249023E0,2.618389652E1
5.759625583E0,1.186642365E1,-2.581067642E1,-3.514990540E0,2.862443337E1
5.769690583E0,1.097532669E1,-2.660238007E1,-5.596112823E0,2.931656358E1
5.779755583E0,1.064421524E1,-2.320519455E1,-1.003168900E1,2.743018695E1
5.789820583E0,1.040007294E1,-1.662203430E1,-1.003498215E1,2.202622092E1
5.799885583E0,9.203910370E0,-1.123503662E1,-6.945406952E0,1.609896555E1
5.809950583E0,7.182064819E0,-8.239166565E0,-3.350332947E0,1.143200121E1
5.820015583E0,4.562512207E0,-7.273824005E0,5.665718079E-1,8.605000692E0
5.830080583E0,1.446591797E0,-8.441246338E0,3.351380768E0,9.196685306E0
5.840145583E0,-3.447331238E-1,-1.134820129E1,4.223916321E0,1.211371052E1
5.850211708E0,1.195264435E0,-1.459420120E1,2.339335327E0,1.482875098E1
5.860276708E0,6.981182556E0,-1.996353561E1,-5.864654388E0,2.194706894E1
5.870341708E0,1.007270370E1,-2.353166565E1,-5.391937408E0,2.615858630E1
5.880406708E0,6.006259918E0,-2.177911011E1,6.978488159E-1,2.260291548E1
5.890471708E0,5.477110291E-1,-1.598376160E1,4.265978851E0,1.655231699E1
5.900536708E0,-2.706671448E0,-1.029873367E1,4.582570496E0,1.159266742E1
5.910601708E0,-4.538562012E0,-6.534810791E0,2.575244751E0,8.362666006E0
5.920666708E0,-5.226980438E0,-4.584067383E0,1.022373962E0,7.027107996E0
5.930731708E0,-4.993016968E0,-3.606001282E0,1.099613342E0,6.256405772E0
5.940797708E0,-4.301904144E0,-3.291954346E0,1.224004669E0,5.553515113E0
5.950862708E0,-3.614533539E0,-3.454366608E0,1.221759338E0,5.146862855E0
5.960927708E0,-3.266656952E0,-4.041745148E0,1.171613617E0,5.327234737E0
5.970992708E0,-3.640130310E0,-5.099595337E0,1.104104004E0,6.362033238E0
5.981057708E0,-4.388274536E0,-6.894213409E0,1.072369995E0,8.242397063E0
5.991122708E0,-5.173092499E0,-8.804091797E0,1.029559021E0,1.026318226E1
6.001187708E0,-5.703739014E0,-1.034738251E1,1.321152649E0,1.188891954E1
6.011252708E0,-6.076314240E0,-1.163575333E1,2.233206024E0,1.331538807E1
6.021317708E0,-6.604865112E0,-1.268207748E1,3.650009766E0,1.475743554E1
6.031382708E0,-6.584806824E0,-1.284239410E1,4.642745361E0,1.516053600E1
6.041448708E0,-4.843178558E0,-1.144789398E1,4.165088654E0,1.310948583E1
6.051513708E0,-3.338507538E0,-9.692344666E0,3.144061890E0,1.072251383E1
6.061578708E0,-2.686164093E0,-8.672515411E0,2.523452454E0,9.423153049E0
6.071643708E0,-2.290387115E0,-8.140072632E0,2.194586334E0,8.736295827E0
6.081708708E0,-2.054627380E0,-7.819140015E0,1.980531464E0,8.323637974E0
6.091773708E0,-1.930685120E0,-7.833360443E0,1.856738892E0,8.278681065E0
6.101838708E0,-1.709445190E0,-8.094567261E0,1.909279633E0,8.490557739E0
6.111903708E0,-1.223555603E0,-8.425978088E0,1.997296600E0,8.745478190E0
6.121968708E0,-3.959266663E-1,-8.825347595E0,2.039658508E0,9.066626988E0
6.132034708E0,1.769320679E-1,-9.274264069E0,1.917213135E0,9.472010619E0
6.142099708E0,5.879772949E-1,-9.781110077E0,1.744322662E0,9.952813330E0
6.152164708E0,9.648934937E-1,-1.003228775E1,1.581461334E0,1.020190359E1
6.162229708E0,1.241368561E0,-9.964478760E0,1.372944946E0,1.013493023E1
6.172294708E0,1.387764130E0,-9.710906067E0,1.129551086E0,9.874384618E0
6.182359708E0,1.508862305E0,-9.321715393E0,8.647517395E-1,9.482554450E0
6.192424708E0,1.707798615E0,-8.860374756E0,3.561094666E-1,9.030483424E0
6.202489708E0,2.120640106E0,-8.804690552E0,6.286926270E-3,9.056474463E0
6.212554708E0,2.420316925E0,-8.939260712E0,-1.317260742E-2,9.261127880E0
6.222619708E0,2.542762299E0,-8.992699585E0,1.302291870E-1,9.346188826E0
6.232685708E0,2.344275055E0,-8.976982269E0,4.104464722E-1,9.287104097E0
6.242750708E0,1.974693604E0,-9.079818420E0,7.611671448E-1,9.323191127E0
6.252815708E0,1.632355499E0,-9.361532593E0,1.077459412E0,9.563670621E0
6.262880708E0,1.333576813E0,-9.716444550E0,1.237476654E0,9.885295659E0
6.272945708E0,1.124162292E0,-9.998158722E0,1.169817352E0,1.012893831E1
6.283010708E0,9.824070740E-1,-1.027553192E1,7.270381165E-1,1.034795943E1
6.293075708E0,1.057850189E0,-1.086231171E1,-1.501377869E-1,1.091473334E1
6.303140708E0,1.354533234E0,-1.154848480E1,-1.105151825E0,1.168005231E1
6.313205708E0,1.618434448E0,-1.199231186E1,-2.177821198E0,1.229543732E1
6.323270708E0,1.679208069E0,-1.215217941E1,-3.350931702E0,1.271707307E1
6.333336708E0,2.028880920E0,-1.179083084E1,-3.798051910E0,1.255249967E1
6.343401708E0,3.138523407E0,-1.090886490E1,-2.806813202E0,1.169324005E1
6.353466708E0,4.143683167E0,-1.021056702E1,-1.294807434E0,1.109514828E1
6.363531708E0,4.498595123E0,-9.943522339E0,-5.137316895E-1,1.092588279E1
6.373596708E0,5.519921265E0,-1.062221100E1,-2.894979858E-1,1.197433532E1
6.383661708E0,7.162156219E0,-1.217523148E1,-2.769241333E-1,1.412832015E1
6.393726708E0,8.322094116E0,-1.324415863E1,-1.405577087E-1,1.564240214E1
6.403791708E0,8.671916656E0,-1.344593903E1,-3.222798157E-1,1.600310217E1
6.413856708E0,8.609047394E0,-1.308698547E1,-1.706301727E0,1.575742211E1
6.423922708E0,8.500223694E0,-1.297741333E1,-3.676654358E0,1.594317556E1
6.433987708E0,7.100185089E0,-1.399230286E1,-4.371958466E0,1.628837587E1
6.444052708E0,3.551664276E0,-1.542572205E1,-4.423301697E0,1.643571774E1
6.454117708E0,1.183139648E0,-1.618179977E1,-4.090244293E0,1.673261969E1
6.464182708E0,2.823129272E-1,-1.654718994E1,-2.012864227E0,1.667155715E1
6.474247708E0,-6.279441833E-1,-1.684956116E1,5.786965942E-1,1.687118593E1
6.484312708E0,-1.895957336E0,-1.740176285E1,2.246079254E0,1.764825420E1
6.494377708E0,-3.294499054E0,-1.794633041E1,2.934497681E0,1.848068657E1
6.504442708E0,-4.745282135E0,-1.837488922E1,3.244353333E0,1.925305391E1
6.514508708E0,-6.260431366E0,-1.853610397E1,3.995790710E0,1.996863778E1
6.524573708E0,-7.010820923E0,-1.799887115E1,5.053341522E0,1.996615219E1
6.534638708E0,-6.612199860E0,-1.638417892E1,5.501359863E0,1.850479577E1
6.544703708E0,-5.103187866E0,-1.422327255E1,4.622836761E0,1.580236148E1
6.554768708E0,-2.995720367E0,-1.204365509E1,3.392694855E0,1.286601519E1
6.564833708E0,-1.400637360E0,-1.021161484E1,-2.559677124E-1,1.031040164E1
6.574898708E0,-1.382075958E0,-9.188791809E0,-2.445464630E0,9.608554840E0
6.584963708E0,-1.722767487E0,-9.013656006E0,-1.525328064E0,9.302717243E0
6.595028708E0,-1.463356934E0,-9.441166992E0,-4.317022705E-1,9.563650691E0
6.605093708E0,-9.285191345E-1,-9.856104126E0,-9.385482788E-2,9.900189142E0
6.615159708E0,-6.174659729E-1,-1.012060410E1,-1.525328064E-1,1.014056989E1
6.625224708E0,-5.656736755E-1,-9.794731750E0,-2.878514099E-1,9.815274586E0
6.635289708E0,-5.134323120E-1,-8.995843048E0,2.748284912E-1,9.014673349E0
6.645354708E0,-5.782475281E-1,-7.988138580E0,1.264270935E0,8.108212453E0
6.655419708E0,-8.583151245E-1,-7.019652557E0,2.002835083E0,7.350073146E0
6.665484708E0,-1.205443268E0,-6.001020813E0,2.442770233E0,6.590331606E0
6.675549708E0,-1.430126038E0,-5.155279541E0,2.896925812E0,6.083941715E0
6.685614708E0,-1.694476318E0,-4.317022705E0,3.334166565E0,5.711794964E0
6.695679708E0,-1.996548157E0,-3.586841125E0,3.725153503E0,5.543320523E0
6.705745708E0,-2.472109222E0,-2.901266785E0,3.899989929E0,5.453310408E0
6.715810708E0,-3.248993683E0,-2.388133850E0,3.726201324E0,5.490329639E0
6.725875708E0,-4.133055267E0,-1.987866211E0,3.198698273E0,5.591549745E0
6.735940708E0,-4.927004242E0,-1.690285034E0,2.436483307E0,5.750555208E0
6.746005708E0,-5.625002747E0,-1.437161407E0,1.745669861E0,6.062462542E0
6.756070708E0,-6.104904785E0,-1.116378479E0,1.494492188E0,6.383546839E0
6.766135708E0,-5.834117889E0,-9.722282410E-1,1.500928802E0,6.102044458E0
6.776200708E0,-5.146896973E0,-1.197509766E0,1.447340240E0,5.478993690E0
6.786265708E0,-4.504582672E0,-1.654808807E0,1.016985168E0,4.905498555E0
6.796331708E0,-3.951333160E0,-2.224524078E0,-3.517684937E-2,4.534619998E0
6.806396708E0,-3.266956329E0,-2.996917877E0,-1.702559509E0,4.749024037E0
6.816461708E0,-2.462529144E0,-4.278702393E0,-3.626808014E0,6.125771814E0
6.826526708E0,-2.679428101E-1,-6.434070282E0,-7.077582092E0,9.568762826E0
6.836591708E0,6.103856964E0,-1.048255142E1,-1.271575745E1,1.757360070E1
6.846656583E0,1.319595886E1,-1.654374710E1,-1.264809814E1,2.465366677E1
6.856721583E0,1.359008926E1,-2.262365387E1,-5.343587952E0,2.692720135E1
6.866786583E0,1.207703568E1,-2.604568771E1,-2.008672943E0,2.877963527E1
6.876851583E0,1.070513855E1,-2.542462921E1,-6.425088959E0,2.832478650E1
6.886916583E0,1.061861847E1,-2.049358337E1,-1.085946762E1,2.550823504E1
6.896982583E0,1.072070618E1,-1.517110153E1,-9.841135254E0,2.102245955E1
6.907047583E0,9.038504333E0,-1.256008118E1,-4.767585754E0,1.619197560E1
6.917112583E0,6.090384979E0,-1.309207489E1,-3.891906738E-3,1.443936388E1
6.927177583E0,3.791914673E0,-1.555804688E1,7.261399841E-1,1.602993196E1
6.937242583E0,6.201304321E0,-1.721510101E1,-2.316283264E0,1.844399757E1
6.947307583E0,1.005533981E1,-1.690973602E1,-3.596421204E0,1.999958191E1
6.957372583E0,8.211324463E0,-1.582868408E1,-1.045126648E0,1.786240126E1
6.967437583E0,2.302960968E0,-1.373229355E1,1.227447510E0,1.397805933E1
6.977502583E0,-2.555485840E0,-1.052251831E1,4.200265503E0,1.161447932E1
6.987567583E0,-5.014422455E0,-7.452252960E0,5.782924347E0,1.068282363E1
6.997633583E0,-5.803581390E0,-5.260510712E0,4.233047333E0,8.903550956E0
7.007698583E0,-4.941224670E0,-4.057013397E0,2.955154724E0,7.043294569E0
7.017763583E0,-3.989204407E0,-3.390599213E0,2.553839264E0,5.825118866E0
7.027828583E0,-3.445385284E0,-3.308120728E0,2.362088013E0,5.328583516E0
7.037893583E0,-3.170407104E0,-3.725003815E0,2.089804230E0,5.319249604E0
7.047958583E0,-3.635639648E0,-4.700824585E0,1.853595428E0,6.225065738E0
7.058023583E0,-4.900060272E0,-6.130052490E0,2.037862244E0,8.108083419E0
7.068088583E0,-6.182593231E0,-7.816445618E0,2.113904114E0,1.018773143E1
7.078153583E0,-6.697821808E0,-9.389374695E0,1.938917999E0,1.169532287E1
7.088219583E0,-6.591243439E0,-1.038196060E1,1.704056396E0,1.241504749E1
7.098284583E0,-6.295608215E0,-1.094479019E1,1.673669586E0,1.273672976E1
7.108349583E0,-5.949228516E0,-1.126048370E1,2.022294617E0,1.289501798E1
7.118414583E0,-5.201383667E0,-1.118429214E1,2.184856567E0,1.252662688E1
7.128479583E0,-4.356390839E0,-1.062789917E1,2.037263489E0,1.166536859E1
7.138544583E0,-3.679348755E0,-9.869875488E0,1.848655701E0,1.069437129E1
7.148609583E0,-3.138523407E0,-9.445208588E0,1.698368225E0,1.009686828E1
7.158674583E0,-2.760260010E0,-9.342222748E0,1.604214020E0,9.872672577E0
7.168739583E0,-2.304008789E0,-9.389225006E0,1.547931061E0,9.790918919E0
7.178805583E0,-1.865420837E0,-9.629475403E0,1.532064056E0,9.927427245E0
7.188870583E0,-1.267863464E0,-9.907447357E0,1.599873047E0,1.011556151E1
7.198935583E0,-7.421566772E-1,-1.010578491E1,1.626966705E0,1.026278256E1
7.209000583E0,-2.754272461E-2,-1.026430527E1,1.697021027E0,1.040368212E1
7.219065583E0,4.908293152E-1,-1.037013519E1,1.709594879E0,1.052156509E1
7.229130583E0,9.342073059E-1,-1.039213943E1,1.638792114E0,1.056195744E1
7.239195583E0,1.484612732E0,-1.026191025E1,1.494791565E0,1.047593808E1
7.249260583E0,1.947899323E0,-9.920769653E0,1.366658020E0,1.020214372E1
7.259325583E0,2.347119141E0,-9.444609833E0,8.583151245E-1,9.769663659E0
7.269390583E0,2.740201721E0,-9.071286163E0,1.779798889E-1,9.477795892E0
7.279456583E0,3.031645660E0,-8.847202148E0,-3.125500488E-1,9.357432810E0
7.289521583E0,3.173849945E0,-8.721463623E0,-5.342390442E-1,9.296379003E0
7.299586583E0,3.011886749E0,-8.739426270E0,-5.481600952E-1,9.260103282E0
7.309651583E0,2.554438019E0,-8.671467590E0,-4.059558105E-1,9.048994634E0
7.319716583E0,1.974693604E0,-8.554710388E0,-1.395098877E-1,8.780771473E0
7.329781583E0,1.389710083E0,-8.626710663E0,2.652484131E-1,8.741955599E0
7.339846583E0,9.451345825E-1,-8.979077911E0,7.417076111E-1,9.059097621E0
7.349911583E0,9.220825195E-1,-9.504934387E0,1.074765015E0,9.609845665E0
7.359976583E0,1.085093536E0,-9.785900116E0,1.174607391E0,9.915693197E0
7.370042583E0,1.092278595E0,-9.826465759E0,1.120869141E0,9.950319064E0
7.380107583E0,1.102008362E0,-1.008572662E1,7.893086243E-1,1.017640959E1
7.390172583E0,1.053359528E0,-1.076950470E1,7.664062500E-2,1.082116775E1
7.400237583E0,9.267228699E-1,-1.141316620E1,-9.605525208E-1,1.149094596E1
7.410302583E0,7.547305298E-1,-1.174278076E1,-2.171833649E0,1.196575863E1
7.420367583E0,7.890092468E-1,-1.179741714E1,-2.998564453E0,1.219807262E1
7.430432583E0,1.346300354E0,-1.130628845E1,-2.783162384E0,1.172137688E1
7.440497583E0,2.252066803E0,-1.041848465E1,-1.556912384E0,1.077221442E1
7.450562583E0,3.022814026E0,-9.914333038E0,-3.008743286E-1,1.036927816E1
7.460628583E0,3.657194824E0,-1.011910721E1,3.269201660E-1,1.076467749E1
7.470693583E0,4.844076691E0,-1.112262039E1,3.775149536E-1,1.213755663E1
7.480758583E0,6.446344757E0,-1.255843460E1,2.568658447E-1,1.411862672E1
7.490823583E0,7.657476196E0,-1.321616684E1,-1.121168518E-1,1.527470385E1
7.500888583E0,8.019872589E0,-1.283056870E1,-8.431965637E-1,1.515430070E1
7.510953583E0,7.758067017E0,-1.195054871E1,-1.863774261E0,1.436930314E1
7.521018583E0,7.854466553E0,-1.165715881E1,-4.265978851E0,1.468947147E1
7.531083583E0,7.736511841E0,-1.275587402E1,-6.438560944E0,1.624872317E1
7.541148583E0,5.202281799E0,-1.431443298E1,-5.846242676E0,1.631395970E1
7.551213583E0,2.644101562E0,-1.534518951E1,-4.381089478E0,1.617590984E1
7.561279583E0,1.037043457E0,-1.616623215E1,-2.532134399E0,1.639616497E1
7.571344583E0,-4.077520752E-1,-1.699685486E1,-1.610650635E-1,1.700250801E1
7.581409583E0,-2.127974854E0,-1.764755173E1,1.254840546E0,1.781962356E1
7.591474583E0,-3.896397400E0,-1.814885925E1,1.340163116E0,1.861072385E1
7.601539583E0,-5.050946503E0,-1.873474091E1,1.734592896E0,1.948105207E1
7.611604583E0,-6.296206970E0,-1.924308380E1,3.276985474E0,2.051041516E1
7.621669583E0,-7.325017548E0,-1.895448395E1,4.846771088E0,2.089065661E1
7.631734583E0,-7.095395050E0,-1.735026993E1,4.722828827E0,1.933084607E1
7.641799583E0,-5.901627502E0,-1.503922577E1,4.762196960E0,1.684298189E1
7.651865583E0,-3.810476074E0,-1.256038055E1,4.351900177E0,1.382830151E1
7.661930583E0,-1.614542542E0,-1.058254349E1,4.674778748E-1,1.071519994E1
7.671995583E0,-4.879852295E-2,-9.181007996E0,-1.977238312E0,9.391632470E0
7.682060583E0,9.925859070E-1,-8.768016815E0,-1.183289337E0,8.903006195E0
7.692125583E0,1.418899384E0,-9.078171844E0,-6.719526672E-1,9.212925696E0
7.702190583E0,1.211730194E0,-9.791887665E0,-1.181044006E-1,9.867284467E0
7.712255583E0,6.105802917E-1,-1.037432648E1,-3.330574036E-1,1.039761441E1
7.722320583E0,-3.968247986E-1,-1.019290375E1,-3.665876770E-1,1.020721036E1
7.732385583E0,-1.020428009E0,-9.405990143E0,1.327738953E-1,9.462111434E0
7.742451583E0,-9.749226379E-1,-8.271349640E0,1.027613068E0,8.391763082E0
7.752516583E0,-9.840536499E-1,-6.909930725E0,1.758692780E0,7.197812480E0
7.762581583E0,-1.128353577E0,-5.918841705E0,2.471809845E0,6.512734667E0
7.772646583E0,-1.215322723E0,-5.171445923E0,3.220403137E0,6.212234592E0
7.782711583E0,-1.492396545E0,-4.426894226E0,3.844455414E0,6.050163417E0
7.792776583E0,-1.783840485E0,-3.886218567E0,4.399351501E0,6.135069295E0
7.802841583E0,-2.354453888E0,-3.444636841E0,4.630770264E0,6.233218215E0
7.812906583E0,-3.121758270E0,-2.953957214E0,4.405937805E0,6.154959453E0
7.822971583E0,-3.992198181E0,-2.448458405E0,3.513343964E0,5.854586295E0
7.833036583E0,-5.009482727E0,-2.130968628E0,2.273472290E0,5.899544113E0
7.843102583E0,-5.979315948E0,-1.937720490E0,1.267564087E0,6.411996461E0
7.853167500E0,-6.604116669E0,-1.582509155E0,8.807684326E-1,6.847951901E0
7.863232500E0,-6.327342224E0,-1.297950897E0,6.771917725E-1,6.494499584E0
7.873297500E0,-5.486241302E0,-1.306632843E0,3.775149536E-1,5.652313735E0
7.883362500E0,-4.760400696E0,-1.714684296E0,9.280700684E-3,5.059806632E0
7.893427500E0,-4.226461029E0,-2.343676300E0,-1.041384430E0,4.943710445E0
7.903492500E0,-3.752247162E0,-3.266507263E0,-2.415227509E0,5.530167482E0
7.913557500E0,-2.990630951E0,-4.480033722E0,-3.429967346E0,6.385863421E0
7.923622500E0,-1.268761597E0,-6.177204437E0,-5.262007599E0,8.213180542E0
7.933688500E0,3.194806366E0,-9.118438110E0,-1.020338196E1,1.405210677E1
7.943753500E0,1.053793625E1,-1.400337982E1,-1.365595230E1,2.221773571E1
7.953818500E0,1.159309204E1,-2.033416489E1,-9.380842438E0,2.521662645E1
7.963883500E0,9.136700134E0,-2.451571930E1,-4.532275085E0,2.655261380E1
7.973948500E0,9.251960449E0,-2.501897278E1,-5.915548553E0,2.732291137E1
7.984013500E0,9.750723267E0,-2.130639313E1,-9.022188263E0,2.510854184E1
7.994078500E0,9.826914825E0,-1.542512329E1,-8.797954559E0,2.029548442E1
8.004143500E0,8.831933899E0,-1.100840790E1,-6.031557312E0,1.534821763E1
8.014208500E0,6.612948303E0,-9.000932465E0,-2.328108673E0,1.140911743E1
8.024274500E0,3.175197144E0,-9.901010742E0,5.394781494E-1,1.041167265E1
8.034339500E0,-1.134640503E-1,-1.279703842E1,8.867559814E-1,1.282822679E1
8.044404500E0,1.308878174E0,-1.539159302E1,-8.482859802E-1,1.547041974E1
8.054469500E0,6.518494720E0,-1.804063431E1,-2.645897827E0,1.936378153E1
8.064534500E0,9.203610992E0,-1.935475159E1,-1.974693604E0,2.152236695E1
8.074599500E0,5.062023468E0,-1.681393524E1,1.081650696E0,1.759268223E1
8.084664500E0,2.257305908E-1,-1.203287750E1,4.042792969E0,1.269587611E1
8.094729500E0,-2.498155060E0,-8.126600647E0,5.612877960E0,1.018758145E1
8.104794500E0,-3.775897980E0,-5.655988312E0,4.491410065E0,8.149869551E0
8.114860500E0,-4.075574799E0,-4.192332001E0,2.670746155E0,6.427973442E0
8.124925500E0,-3.866908722E0,-3.456013184E0,1.865420837E0,5.511515680E0
8.134990500E0,-3.571123810E0,-3.470532990E0,1.494492188E0,5.199137563E0
8.145055500E0,-3.207829285E0,-4.068838806E0,1.242566071E0,5.328188096E0
8.155120500E0,-3.148103485E0,-5.054239655E0,1.081950073E0,6.051983972E0
8.165185500E0,-3.589236145E0,-6.438860321E0,1.142723694E0,7.459715529E0
8.175250500E0,-4.277055817E0,-8.129145355E0,1.363813934E0,9.286344766E0
8.185315500E0,-4.814438324E0,-9.945318604E0,1.368603973E0,1.113378890E1
8.195380500E0,-5.058430939E0,-1.141436371E1,1.340911560E0,1.255680956E1
8.205445500E0,-4.862937469E0,-1.234752319E1,1.595083008E0,1.336614304E1
8.215511500E0,-4.634662170E0,-1.283955002E1,2.140548706E0,1.381723876E1
8.225576500E0,-4.180356903E0,-1.273686356E1,2.582280121E0,1.365178551E1
8.235641500E0,-3.362158356E0,-1.173290131E1,2.711461487E0,1.250268392E1
8.245706500E0,-2.709964600E0,-1.045650558E1,2.513872375E0,1.109062539E1
8.255771500E0,-2.287692719E0,-9.483828278E0,2.311193848E0,1.002587421E1
8.265836500E0,-1.978435822E0,-8.924291840E0,2.318079529E0,9.430306773E0
8.275901500E0,-1.531465302E0,-8.515641632E0,2.331701202E0,8.960935714E0
8.285966500E0,-1.163680115E0,-8.268655243E0,2.202519836E0,8.635734165E0
8.296031500E0,-8.641529846E-1,-8.246501312E0,1.964065704E0,8.521097251E0
8.306097500E0,-7.234455872E-1,-8.316256256E0,1.634301453E0,8.506140892E0
8.316162500E0,-2.960842896E-1,-8.480464783E0,1.439706116E0,8.606898543E0
8.326227500E0,1.654060364E-1,-8.773854675E0,1.296004944E0,8.870598279E0
8.336292500E0,5.357359314E-1,-9.089548187E0,1.133442993E0,9.175597651E0
8.346357500E0,9.395960999E-1,-9.308542786E0,9.723779297E-1,9.406238805E0
8.356422500E0,1.184187469E0,-9.385333099E0,8.502319336E-1,9.497877220E0
8.366487500E0,1.272503815E0,-9.387129364E0,7.117698669E-1,9.499688416E0
8.376552500E0,1.361418915E0,-9.279054108E0,6.533912659E-1,9.401129014E0
8.386617500E0,1.456471252E0,-8.951535187E0,6.418652344E-1,9.091934980E0
8.396683500E0,1.787882080E0,-8.674611053E0,4.387376404E-1,8.867800741E0
8.406748500E0,2.160157928E0,-8.618028717E0,2.848576355E-1,8.889198227E0
8.416813500E0,2.186503143E0,-8.557404785E0,2.318678284E-1,8.835368433E0
8.426878500E0,1.930834808E0,-8.513096924E0,3.110531616E-1,8.734855257E0
8.436943500E0,1.510957947E0,-8.677455139E0,4.882846069E-1,8.821544279E0
8.447008500E0,1.016087036E0,-9.116941223E0,6.682104492E-1,9.197692935E0
8.457073500E0,7.450007629E-1,-9.713151398E0,8.536747742E-1,9.779013081E0
8.467138500E0,7.381150818E-1,-1.009081604E1,1.055904236E0,1.017272412E1
8.477203500E0,9.045689392E-1,-1.029244675E1,1.134191437E0,1.039418564E1
8.487269500E0,1.056502991E0,-1.076366684E1,9.301657104E-1,1.085531808E1
8.497334500E0,1.038690033E0,-1.140672958E1,2.336640930E-1,1.145630637E1
8.507399500E0,9.604028320E-1,-1.188318878E1,-9.208850098E-1,1.195744866E1
8.517464500E0,9.442364502E-1,-1.217328552E1,-2.473755798E0,1.245792642E1
8.527529500E0,1.145717468E0,-1.213017517E1,-3.770209808E0,1.275414835E1
8.537594500E0,2.147135010E0,-1.175116333E1,-3.521576843E0,1.245397655E1
8.547659500E0,3.470083923E0,-1.129820526E1,-1.946552124E0,1.197831331E1
8.557724500E0,3.853885803E0,-1.087189178E1,-5.876779175E-1,1.154971134E1
8.567789500E0,4.367318115E0,-1.082084793E1,-6.331832886E-2,1.166911422E1
8.577855500E0,5.469925232E0,-1.144759460E1,-1.414558411E-1,1.268808551E1
8.587920500E0,6.877897339E0,-1.254092102E1,-4.522096252E-1,1.431029928E1
8.597985500E0,7.911497955E0,-1.316168015E1,-1.005159760E0,1.538934600E1
8.608050500E0,8.161777496E0,-1.290661057E1,-2.042053528E0,1.540666060E1
8.618115500E0,7.843090210E0,-1.220082825E1,-3.334166565E0,1.488257171E1
8.628180500E0,7.740553436E0,-1.184696411E1,-5.229974213E0,1.508705924E1
8.638245500E0,7.270530853E0,-1.293430298E1,-6.011049957E0,1.600904538E1
8.648310500E0,4.683760071E0,-1.451785995E1,-5.034031677E0,1.606385200E1
8.658375500E0,2.049388275E0,-1.536240372E1,-3.714226227E0,1.593734347E1
8.668441500E0,4.932243347E-1,-1.605067245E1,-1.612446899E0,1.613900064E1
8.678506500E0,-5.180726624E-1,-1.686782318E1,9.074130249E-1,1.690015552E1
8.688571500E0,-1.743873596E0,-1.765383865E1,2.331701202E0,1.789234319E1
8.698636500E0,-3.464994507E0,-1.857666962E1,2.909349976E0,1.911970602E1
8.708701500E0,-4.981490936E0,-1.973151810E1,3.552562408E0,2.065838227E1
8.718766500E0,-6.230493622E0,-2.052995773E1,4.887486420E0,2.200422093E1
8.728831500E0,-7.221732330E0,-2.003598495E1,6.271059265E0,2.220180838E1
8.738896500E0,-6.935826874E0,-1.798135757E1,6.119424591E0,2.022083757E1
8.748961500E0,-5.402565308E0,-1.486858063E1,5.347479858E0,1.669904017E1
8.759027500E0,-3.196303253E0,-1.196432007E1,5.120402069E0,1.340073978E1
8.769092500E0,-1.740281067E0,-9.451944580E0,3.270399170E0,1.015201188E1
8.779157500E0,2.213896179E-1,-7.763605499E0,-7.333250427E-1,7.801304335E0
8.789222500E0,1.575623474E0,-7.145989838E0,-1.468895416E0,7.463605954E0
8.799287500E0,1.219963074E0,-7.802973633E0,-9.111552429E-1,7.950151652E0
8.809352500E0,4.547543335E-1,-8.897347870E0,-8.324189758E-1,8.947766312E0
8.819417500E0,-8.158035278E-2,-9.672585754E0,-1.062939606E0,9.731156721E0
8.829482500E0,-8.017327881E-1,-9.828262024E0,-1.027613068E0,9.914307767E0
8.839547500E0,-1.379830627E0,-9.265432434E0,-2.781216431E-1,9.371740628E0
8.849613583E0,-1.409319305E0,-8.276888123E0,1.012195129E0,8.456807724E0
8.859678583E0,-1.119521942E0,-7.018455048E0,1.838327179E0,7.341082172E0
8.869743583E0,-1.072968750E0,-6.084098053E0,2.429897003E0,6.638667826E0
8.879808583E0,-1.395997009E0,-5.311853943E0,3.007545776E0,6.261783417E0
8.889873583E0,-1.768572235E0,-4.562362518E0,3.571273499E0,6.057804380E0
8.899938583E0,-2.147584076E0,-3.859873352E0,4.072281647E0,6.007846325E0
8.910003583E0,-2.614163818E0,-3.165766754E0,4.353247375E0,5.983869511E0
8.920068583E0,-3.373235321E0,-2.652334442E0,4.302053833E0,6.076286835E0
8.930133583E0,-4.340523834E0,-2.220482483E0,3.799698486E0,6.181294217E0
8.940199583E0,-5.386698303E0,-1.896406403E0,2.931354218E0,6.419167657E0
8.950264583E0,-6.118077393E0,-1.624721375E0,1.979633331E0,6.632460980E0
8.960329583E0,-6.486910400E0,-1.400188293E0,1.405277710E0,6.783460713E0
8.970394583E0,-6.312672729E0,-1.376836853E0,1.207389221E0,6.572922139E0
8.980459583E0,-5.587131500E0,-1.610500946E0,1.066981201E0,5.911700312E0
8.990524583E0,-4.664450226E0,-1.945653992E0,7.210505676E-1,5.105152229E0
9.000589583E0,-3.780987396E0,-2.492167511E0,-3.318598938E-1,4.540583176E0
9.010654583E0,-3.130290527E0,-3.438349915E0,-2.068099365E0,5.089008145E0
9.020719583E0,-2.224673767E0,-4.912484436E0,-4.408482513E0,6.965371115E0
9.030785583E0,8.801696777E-2,-7.305258636E0,-8.737630005E0,1.138950082E1
9.040850583E0,6.449488220E0,-1.117471207E1,-1.400547546E1,1.904267395E1
9.050915583E0,1.328307770E1,-1.665287018E1,-1.268851410E1,2.479428620E1
9.060980583E0,1.418824539E1,-2.210617996E1,-5.548661499E0,2.684729305E1
9.071045583E0,1.264615219E1,-2.535696991E1,-2.533631287E0,2.844855665E1
9.081110583E0,1.060544586E1,-2.505564651E1,-6.674470367E0,2.801445089E1
9.091175583E0,9.822723541E0,-2.005604324E1,-9.787247314E0,2.438280087E1
9.101240583E0,9.619146881E0,-1.436637497E1,-7.943231964E0,1.902670887E1
9.111305583E0,8.474028168E0,-1.102831650E1,-3.632645874E0,1.437459684E1
9.121371583E0,6.319857788E0,-1.019754410E1,3.388952637E-1,1.200188977E1
9.131436583E0,3.589086456E0,-1.251502487E1,1.173709259E0,1.307229829E1
9.141501583E0,2.534230042E0,-1.594978226E1,-1.168470154E0,1.619207209E1
9.151566583E0,4.798870697E0,-1.788316177E1,-3.883075104E0,1.891863915E1
9.161631583E0,5.443280640E0,-1.765608398E1,-3.322041779E0,1.877238843E1
9.171696583E0,2.225272522E0,-1.441173065E1,8.485853577E-1,1.460718711E1
9.181761583E0,-1.089584198E0,-1.045515839E1,4.001029816E0,1.124747839E1
9.191826583E0,-3.375480652E0,-7.635621643E0,5.462440796E0,9.976715239E0
9.201891583E0,-4.522994385E0,-5.982758789E0,4.669539642E0,8.834901324E0
9.211957583E0,-4.447102203E0,-5.194348297E0,3.470532990E0,7.668283476E0
9.222022583E0,-4.048930206E0,-5.014272766E0,2.771037598E0,7.015370023E0
9.232087583E0,-3.872447205E0,-5.318589935E0,2.261197815E0,6.956742184E0
9.242152583E0,-3.967200165E0,-5.975723419E0,1.756746826E0,7.384721182E0
9.252217583E0,-4.418960724E0,-6.914421387E0,1.582808533E0,8.357135864E0
9.262282583E0,-4.968018951E0,-8.045020294E0,1.944306793E0,9.653180447E0
9.272347583E0,-5.377417603E0,-9.186097412E0,2.015558624E0,1.083344277E1
9.282412583E0,-5.421426086E0,-1.013826736E1,1.564396820E0,1.160274379E1
9.292477583E0,-5.194198608E0,-1.048015640E1,1.287921753E0,1.176741772E1
9.302543583E0,-4.993166656E0,-1.031235535E1,1.440753937E0,1.154782049E1
9.312608583E0,-4.693639526E0,-9.923613739E0,1.898352356E0,1.114056118E1
9.322673583E0,-4.163591766E0,-9.506580963E0,2.168690186E0,1.060253720E1
9.332738583E0,-3.704197083E0,-9.180409241E0,2.175126801E0,1.013568776E1
9.342803583E0,-3.285817108E0,-8.900042267E0,2.125130768E0,9.722321081E0
9.352868583E0,-2.875819702E0,-8.734935608E0,1.954635315E0,9.401597643E0
9.362933583E0,-2.440225525E0,-8.745713196E0,1.792522430E0,9.255016833E0
9.372998583E0,-1.941462708E0,-8.872200165E0,1.676663361E0,9.235605732E0
9.383064583E0,-1.531165924E0,-9.100325775E0,1.556613007E0,9.358602585E0
9.393129583E0,-1.215322723E0,-9.295819244E0,1.597777405E0,9.510108169E0
9.403194583E0,-9.071136475E-1,-9.430539093E0,1.679507446E0,9.621780917E0
9.413259583E0,-3.776646423E-1,-9.518556061E0,1.654359741E0,9.668632076E0
9.423324583E0,2.592608643E-1,-9.740843811E0,1.564247131E0,9.869048760E0
9.433389583E0,7.065307617E-1,-1.002674927E1,1.409918060E0,1.015001259E1
9.443454583E0,1.139131165E0,-1.015892441E1,1.294657745E0,1.030424687E1
9.453519583E0,1.704206085E0,-1.008767258E1,1.185085602E0,1.029902346E1
9.463584583E0,2.305954742E0,-9.904303894E0,1.115031281E0,1.023014944E1
9.473650583E0,2.971770172E0,-9.762848053E0,1.260379028E0,1.028266383E1
9.483715583E0,3.501069489E0,-9.587113495E0,1.408421173E0,1.030310065E1
9.493780583E0,3.911366272E0,-9.456884308E0,1.093925171E0,1.029213871E1
9.503845583E0,4.013753357E0,-9.317075043E0,5.719606018E-1,1.016096660E1
9.513910583E0,3.707939301E0,-9.141789551E0,2.978805542E-1,9.869643503E0
9.523975583E0,3.130440216E0,-8.992400208E0,2.392025757E-1,9.524711823E0
9.534040583E0,2.352957001E0,-8.870553589E0,3.260220337E-1,9.183105030E0
9.544105583E0,1.708547058E0,-8.903185730E0,5.153782654E-1,9.080278848E0
9.554170583E0,1.408870239E0,-9.073681183E0,7.875123596E-1,9.216115303E0
9.564236583E0,1.532064056E0,-9.382638702E0,1.009800110E0,9.560377898E0
9.574301583E0,1.812730408E0,-9.959239655E0,1.109343109E0,1.018347132E1
9.584366583E0,1.927841034E0,-1.045126648E1,1.027762756E0,1.067716434E1
9.594431583E0,1.908830566E0,-1.068373306E1,7.929011536E-1,1.088184169E1
9.604496583E0,1.936073914E0,-1.077025314E1,6.008505249E-1,1.095936843E1
9.614561583E0,1.836081848E0,-1.111274094E1,3.835025024E-1,1.126992821E1
9.624626583E0,1.613794098E0,-1.171299271E1,-8.652008057E-2,1.182395937E1
9.634691583E0,1.116079102E0,-1.237731125E1,-1.501677246E0,1.251792718E1
9.644756583E0,7.741900635E-1,-1.281829422E1,-3.842060394E0,1.340408389E1
9.654822583E0,1.804497528E0,-1.244332397E1,-5.589077454E0,1.375973509E1
9.664887583E0,3.817810822E0,-1.116094070E1,-4.785548401E0,1.272964062E1
9.674952583E0,4.886139221E0,-1.056023987E1,-2.278711395E0,1.185687767E1
9.685017583E0,5.442232819E0,-1.118294495E1,-4.245172119E-1,1.244412997E1
9.695082583E0,6.548133087E0,-1.243419296E1,4.388873291E-1,1.405986571E1
9.705147583E0,7.818990326E0,-1.339459579E1,4.237687683E-1,1.551552082E1
9.715212583E0,9.005123749E0,-1.353769821E1,-3.619473267E-1,1.626322639E1
9.725277583E0,9.577982483E0,-1.284359161E1,-1.688638458E0,1.611046535E1
9.735343583E0,9.633666687E0,-1.210772186E1,-3.503763885E0,1.586445158E1
9.745408583E0,9.270970917E0,-1.261816040E1,-5.787864075E0,1.669335928E1
9.755473583E0,5.661826172E0,-1.462354019E1,-5.648653564E0,1.666767802E1
9.765538583E0,1.741628265E0,-1.586401062E1,-4.126918030E0,1.648428204E1
9.775603583E0,2.650987244E-1,-1.653701111E1,-2.005679169E0,1.666030500E1
9.785668583E0,-8.530760193E-1,-1.702065536E1,8.096662903E-1,1.706124284E1
9.795733583E0,-2.130220184E0,-1.729308884E1,2.793041840E0,1.764624159E1
9.805798583E0,-3.567531281E0,-1.749636612E1,3.543880463E0,1.820464764E1
9.815863583E0,-4.948110352E0,-1.786460037E1,4.212839355E0,1.900988580E1
9.825929583E0,-6.264323273E0,-1.810500046E1,5.305417328E0,1.987914084E1
9.835994583E0,-6.678961029E0,-1.751552628E1,6.067033539E0,1.970307278E1
9.846059583E0,-6.143524475E0,-1.587164474E1,5.765261078E0,1.796914676E1
9.856125125E0,-4.650529175E0,-1.392194916E1,5.435646515E0,1.565229513E1
9.866190125E0,-3.192561035E0,-1.213780930E1,5.380710754E0,1.365543513E1
9.876255125E0,-2.833158417E0,-1.048389862E1,4.636159058E0,1.180817038E1
9.886320125E0,-1.945803680E0,-9.336384888E0,5.552703094E0,1.103570326E1
9.896385125E0,5.929170227E-1,-8.693471832E0,9.854008484E-1,8.769208512E0
9.906450125E0,3.404520264E0,-9.266480255E0,-5.761967926E0,1.143060317E1
9.916516125E0,1.609004059E0,-1.013781830E1,-3.037333832E0,1.070465556E1
9.926581125E0,-2.245330811E-2,-1.033450928E1,-2.448757782E0,1.062068740E1
9.936646125E0,-7.426057434E-1,-1.003213806E1,-1.894011383E0,1.023633413E1
9.946711125E0,-1.129850464E0,-9.391620026E0,-7.026388550E-1,9.485398786E0
9.956776125E0,-1.221010895E0,-8.475225677E0,4.614903259E-1,8.575155463E0
9.966841125E0,-1.304537201E0,-7.458839264E0,1.659598846E0,7.751797779E0
9.976906125E0,-1.391656036E0,-6.457721100E0,2.633922729E0,7.111709870E0
9.986971125E0,-1.725461884E0,-5.544021149E0,3.351380768E0,6.704113831E0
9.997036125E0,-2.222877502E0,-4.636009369E0,3.714375916E0,6.342740394E0
1.000710212E1,-2.795436859E0,-3.714076538E0,3.993695068E0,6.128493458E0
1.001716712E1,-3.388204193E0,-2.902913361E0,4.205504608E0,6.131321443E0
1.002723212E1,-4.213737488E0,-2.430795135E0,4.087849274E0,6.354121520E0
1.003729712E1,-5.136718140E0,-1.960922241E0,3.369493103E0,6.448610164E0
1.004736212E1,-6.040538635E0,-1.516047363E0,2.232457581E0,6.615918187E0
1.005742712E1,-6.656208344E0,-1.235530701E0,1.481169891E0,6.930044002E0
1.006749212E1,-6.662195892E0,-1.026565247E0,1.275497589E0,6.860436168E0
1.007755712E1,-6.194119263E0,-9.114546204E-1,1.096020813E0,6.356030569E0
1.008762212E1,-5.443729706E0,-1.059945831E0,7.803273010E-1,5.600588270E0
1.009768812E1,-4.599335632E0,-1.329684906E0,2.791694641E-1,4.795819617E0
1.010775312E1,-3.621568909E0,-1.897454224E0,-7.265890503E-1,4.152592629E0
1.011781812E1,-2.798879700E0,-2.965932312E0,-1.907483368E0,4.502107823E0
1.012788312E1,-1.406774597E0,-4.555626526E0,-3.577710114E0,5.960935956E0
1.013794812E1,2.267933807E0,-7.464976501E0,-7.815996552E0,1.104351393E1
1.014801312E1,1.008662476E1,-1.243778549E1,-1.186342987E1,1.992936214E1
1.015807812E1,1.523157578E1,-1.872067017E1,-8.289611664E0,2.551826902E1
1.016814312E1,1.390189087E1,-2.473471390E1,-3.043171692E0,2.853645975E1
1.017820912E1,1.130613876E1,-2.780153641E1,-4.659360809E0,3.037208988E1
1.018827412E1,1.048719177E1,-2.542702423E1,-1.051263885E1,2.944537872E1
1.019833912E1,1.113908615E1,-1.889640472E1,-1.156779465E1,2.479853271E1
1.020840412E1,1.046294220E1,-1.268881348E1,-7.952362976E0,1.826798357E1
1.021846912E1,8.540190582E0,-8.489745483E0,-4.381388855E0,1.281433579E1
1.022853412E1,6.320157166E0,-5.474864960E0,-1.347048798E0,8.469537968E0
1.023859912E1,3.810775452E0,-3.258573761E0,1.302142181E0,5.180336549E0
1.024866412E1,1.234183502E0,-2.235601044E0,4.359683990E0,5.052520702E0
1.025872912E1,-9.086105347E-1,-2.768492889E0,6.292165375E0,6.934080407E0
1.026879512E1,-2.239193573E0,-4.366569672E0,5.673950958E0,7.501642356E0
1.027886012E1,-2.697390747E0,-6.641089783E0,4.673730927E0,8.557087771E0
1.028892512E1,-1.620081024E0,-9.582622833E0,4.553381195E0,1.073240901E1
1.029899012E1,1.646575928E-3,-1.308788361E1,4.593048706E0,1.387042885E1
1.030905512E1,1.735191650E0,-1.767299881E1,3.147804108E0,1.803481211E1
1.031912012E1,7.978408813E0,-2.509815811E1,-1.112756012E1,2.859012315E1
1.032918512E1,4.866380310E0,-2.494532593E1,-4.065695343E0,2.573870280E1
1.033925012E1,8.723858643E-1,-1.971475296E1,2.620151367E0,1.990722820E1
1.034931512E1,-1.012943573E0,-1.298070648E1,1.208586731E0,1.307614153E1
1.035938112E1,-2.922672272E0,-5.832920380E0,-1.990111542E0,6.820961612E0
1.036944612E1,-4.235741730E0,-3.329077148E0,-1.322350159E0,5.547330223E0
1.037951112E1,-3.856729889E0,-4.818779297E0,1.347198486E-1,6.173584760E0
1.038957612E1,-3.115471344E0,-5.212011566E0,2.860551453E-1,6.078902352E0
1.039964112E1,-2.824027405E0,-5.569468231E0,1.321751404E-1,6.245924866E0
1.040970612E1,-2.760110321E0,-6.269412689E0,9.041198730E-2,6.850687468E0
1.041977112E1,-2.975063324E0,-7.420219574E0,2.005828857E-2,7.994439483E0
1.042983612E1,-3.564088440E0,-8.986262970E0,8.816665649E-2,9.667648211E0
1.043990212E1,-4.034859467E0,-1.049916687E1,7.738906860E-1,1.127437372E1
1.044996712E1,-4.308191071E0,-1.182376236E1,1.949695587E0,1.273433074E1
1.046003212E1,-4.446204071E0,-1.280751663E1,2.959944763E0,1.387668858E1
1.047009712E1,-3.450325012E0,-1.265019379E1,3.266207886E0,1.351296635E1
1.048016212E1,-1.816322937E0,-1.117800522E1,3.275638275E0,1.178883522E1
1.049022713E1,-7.602690125E-1,-9.547745361E0,3.369792480E0,1.015346994E1
1.050029212E1,-3.980223083E-1,-8.458460541E0,3.291505280E0,9.085041744E0
1.051035712E1,-4.032614136E-1,-7.780670013E0,3.147355042E0,8.402814373E0
1.052042213E1,-5.704637146E-1,-7.393425293E0,2.944377136E0,7.978566484E0
1.053048812E1,-9.285191345E-1,-7.199877777E0,2.595153351E0,7.709423370E0
1.054055312E1,-1.029559021E0,-7.290589142E0,2.325563965E0,7.721459031E0
1.055061812E1,-5.522016907E-1,-7.582332458E0,2.085014191E0,7.883145083E0
1.056068312E1,1.167572021E-2,-7.996670837E0,1.871109009E0,8.212668855E0
1.057074812E1,2.891986084E-1,-8.578660583E0,1.672023010E0,8.744867877E0
1.058081312E1,5.140310669E-1,-9.037456512E0,1.475182343E0,9.171478130E0
1.059087812E1,7.270381165E-1,-9.183702393E0,1.359323273E0,9.312182012E0
1.060094312E1,8.623567200E-1,-8.989556122E0,1.305734711E0,9.124731312E0
1.061100912E1,8.927435303E-1,-8.651109924E0,1.319356384E0,8.796555872E0
1.062107412E1,8.954379272E-1,-8.414002991E0,1.308578796E0,8.562104524E0
1.063113912E1,9.139993286E-1,-8.394693146E0,1.314865723E0,8.546059891E0
1.064120412E1,9.318122864E-1,-8.476123810E0,1.299747162E0,8.625676302E0
1.065126912E1,8.852590942E-1,-8.606951752E0,1.210382996E0,8.736608559E0
1.066133412E1,8.761280823E-1,-8.827443237E0,1.128952332E0,8.942364782E0
1.067139912E1,9.806108093E-1,-9.138197021E0,1.073417816E0,9.253132884E0
1.068146412E1,1.088536377E0,-9.483528900E0,1.030457153E0,9.601253761E0
1.069152912E1,1.233584747E0,-9.764794006E0,9.726773071E-1,9.890350573E0
1.070159512E1,1.384770355E0,-1.002869522E1,9.620494080E-1,1.016945701E1
1.071166013E1,1.557211761E0,-1.053943314E1,1.018182678E0,1.070239484E1
1.072172512E1,1.873504028E0,-1.131182693E1,1.036444702E0,1.151267404E1
1.073179012E1,2.321821747E0,-1.201237015E1,1.062490540E0,1.228074831E1
1.074185513E1,2.915337524E0,-1.275183243E1,8.852590942E-1,1.311076301E1
1.075192012E1,3.908522186E0,-1.287008652E1,-1.203647003E0,1.350423781E1
1.076198512E1,5.025649109E0,-1.205039108E1,-3.499273224E0,1.351717379E1
1.077205013E1,5.856271820E0,-1.127051285E1,-4.549189911E0,1.349131233E1
1.078211512E1,6.179749146E0,-1.090721832E1,-4.451592865E0,1.330313460E1
1.079218112E1,6.174210663E0,-1.137694153E1,-2.909948730E0,1.326738397E1
1.080224612E1,6.522985382E0,-1.222687408E1,-1.014739838E0,1.389516049E1
1.081231112E1,7.358996887E0,-1.294597870E1,-4.683760071E-1,1.489874410E1
1.082237612E1,8.225395203E0,-1.307156754E1,-1.101858673E0,1.548344589E1
1.083244112E1,8.885522461E0,-1.266665955E1,-1.305285645E0,1.552741267E1
1.084250612E1,9.555978241E0,-1.265857635E1,-1.894460449E0,1.597326691E1
1.085257112E1,1.026655060E1,-1.355551117E1,-4.571792908E0,1.760838535E1
1.086263612E1,8.525670776E0,-1.516496429E1,-7.046746216E0,1.877018477E1
1.087270212E1,3.975433044E0,-1.634241577E1,-6.777007141E0,1.813302090E1
1.088276712E1,1.291813660E0,-1.649315231E1,-4.276606750E0,1.708748727E1
1.089283212E1,-3.698808289E-1,-1.654943527E1,-8.214916992E-1,1.657393943E1
1.090289712E1,-2.144290924E0,-1.666679123E1,1.727557526E0,1.689273123E1
1.091296212E1,-3.263663177E0,-1.718755829E1,2.632725220E0,1.769166186E1
1.092302712E1,-4.090693359E0,-1.802072571E1,3.092718658E0,1.873620121E1
1.093309212E1,-5.320535889E0,-1.864477798E1,3.858226776E0,1.976921248E1
1.094315712E1,-6.615043945E0,-1.860376328E1,4.498146057E0,2.025073165E1
1.095322212E1,-6.921157379E0,-1.751103561E1,4.670587463E0,1.939982410E1
1.096328812E1,-5.825286255E0,-1.545416290E1,4.871918793E0,1.721919579E1
1.097335312E1,-4.096381531E0,-1.317799622E1,5.112318878E0,1.471651216E1
1.098341812E1,-2.776426392E0,-1.123024658E1,5.279072113E0,1.271595786E1
1.099348312E1,-2.040406952E0,-9.805659027E0,4.709805908E0,1.106781285E1
1.100354812E1,4.453239441E-1,-8.939111023E0,2.348765717E0,9.253254546E0
1.101361312E1,3.194656677E0,-9.025182037E0,-1.593735809E0,9.705654843E0
1.102367812E1,2.712958374E0,-9.889185333E0,-1.219514008E0,1.032682643E1
1.103374312E1,1.528920593E0,-1.024484573E1,-1.534309387E-1,1.035944030E1
1.104380912E1,8.265811157E-1,-1.012314880E1,-6.059399414E-1,1.017489760E1
1.105387412E1,4.203259277E-1,-9.504335632E0,-8.762777710E-1,9.553896191E0
1.106393912E1,9.325607300E-2,-8.543483734E0,-2.478845215E-1,8.547587832E0
1.107400412E1,-4.504133606E-1,-7.404352570E0,8.288264465E-1,7.464198714E0
1.108406912E1,-8.939410400E-1,-6.368506622E0,1.960323486E0,6.723085255E0
1.109413412E1,-1.272503815E0,-5.448968811E0,2.967578888E0,6.333802295E0
1.110419912E1,-1.803749084E0,-4.473597107E0,3.662284241E0,6.056311393E0
1.111426412E1,-2.226320343E0,-3.572770386E0,4.102369080E0,5.877977761E0
1.112432912E1,-2.644700317E0,-2.821033630E0,4.348457336E0,5.819085127E0
1.113439512E1,-3.340453491E0,-2.309098206E0,4.396357727E0,5.984858003E0
1.114446012E1,-4.279750214E0,-1.803449707E0,4.052073669E0,6.163440091E0
1.115452512E1,-5.457800446E0,-1.308429108E0,3.255430298E0,6.488250832E0
1.116459012E1,-6.562652893E0,-7.961943054E-1,2.348017273E0,7.015377644E0
1.117465512E1,-7.197183380E0,-5.818400574E-1,1.836081848E0,7.450448511E0
1.118472012E1,-7.152725830E0,-5.727090454E-1,1.622176666E0,7.356693523E0
1.119478512E1,-6.462361450E0,-8.141569519E-1,1.328337708E0,6.647514432E0
1.120485012E1,-5.576353912E0,-1.329535217E0,9.797126770E-1,5.815773704E0
1.121491612E1,-4.356540527E0,-1.927092590E0,1.496887207E-4,4.763730811E0
1.122498112E1,-3.652404785E0,-3.052153015E0,-1.601819000E0,5.022103429E0
1.123504612E1,-3.228636017E0,-4.840484161E0,-3.655847626E0,6.871651862E0
1.124511112E1,-1.239272919E0,-7.431595917E0,-7.738906860E0,1.080069880E1
1.125517612E1,6.420448608E0,-1.190803711E1,-1.462937805E1,1.992591805E1
1.126524112E1,1.622431137E1,-1.824555817E1,-1.303624100E1,2.767801025E1
1.127530612E1,1.762330215E1,-2.479773285E1,-4.277953949E0,3.072147821E1
1.128537112E1,1.430320633E1,-2.837634109E1,-2.946323090E0,3.191362193E1
1.129543612E1,1.097412918E1,-2.633338943E1,-8.103398895E0,2.965710681E1
1.130550212E1,1.077713882E1,-1.911914154E1,-1.070364166E1,2.441835865E1
1.131556712E1,1.038016434E1,-1.242895386E1,-8.369096375E0,1.822823304E1
1.132563212E1,8.344248047E0,-8.440946960E0,-4.570445709E0,1.271868842E1
1.133569712E1,5.522465973E0,-6.501729584E0,-2.351609802E-1,8.533781031E0
1.134576212E1,2.178719330E0,-6.769522705E0,2.697091370E0,7.605758176E0
1.135582712E1,-6.361770630E-1,-9.361233215E0,4.063300323E0,1.022486274E1
1.136589213E1,-1.146016846E0,-1.108280319E1,4.036056976E0,1.185038553E1
1.137595712E1,1.817670135E0,-1.319610855E1,4.903802490E-1,1.332972912E1
1.138602312E1,7.953410797E0,-1.663400940E1,-5.669759674E0,1.928971713E1
1.139608812E1,9.888586578E0,-1.836500977E1,-3.404220886E0,2.113401164E1
1.140615312E1,5.357509003E0,-1.717318817E1,2.550695801E-1,1.799128553E1
1.141621812E1,4.174818420E-1,-1.392164978E1,2.816842346E0,1.420989882E1
1.142628312E1,-2.683469696E0,-1.025173141E1,3.932472382E0,1.130324492E1
1.143634812E1,-4.212839355E0,-7.353159027E0,2.921923828E0,8.964072845E0
1.144641312E1,-4.791985016E0,-5.598657532E0,1.496887207E0,7.519890814E0
1.145647812E1,-4.632716217E0,-4.915328522E0,1.418450317E0,6.901776244E0
1.146654412E1,-4.251908112E0,-4.818030853E0,1.602866821E0,6.622788381E0
1.147660912E1,-3.827839966E0,-5.114115143E0,1.352886658E0,6.529688722E0
1.148667412E1,-3.294948120E0,-5.780229950E0,1.136137390E0,6.749707368E0
1.149673912E1,-3.299438782E0,-6.665339355E0,1.101409607E0,7.518387335E0
1.150680412E1,-3.550167389E0,-7.864495697E0,1.140029297E0,8.703657154E0
1.151686912E1,-3.646566925E0,-9.126970367E0,1.087338867E0,9.888444986E0
1.152693412E1,-3.720812531E0,-1.016146912E1,9.117539978E-1,1.085961306E1
1.153699912E1,-3.644620972E0,-1.108489883E1,9.949809265E-1,1.171103032E1
1.154706412E1,-3.478466492E0,-1.187360870E1,1.529818726E0,1.246686240E1
1.155713013E1,-3.332969055E0,-1.194501022E1,2.309098206E0,1.261443167E1
1.156719512E1,-2.760409698E0,-1.115046249E1,2.677332458E0,1.179494742E1
1.157726012E1,-2.184856567E0,-1.010309052E1,2.617157593E0,1.066281154E1
1.158732513E1,-1.996099091E0,-9.306746521E0,2.433339844E0,9.824514501E0
1.159739012E1,-1.810485077E0,-8.800798645E0,2.293530579E0,9.273197697E0
1.160745512E1,-1.694925385E0,-8.514893188E0,2.174977112E0,8.950234830E0
1.161752013E1,-1.327888641E0,-8.319250031E0,2.180365906E0,8.702137944E0
1.162758512E1,-9.928852844E-1,-8.267008667E0,2.317031708E0,8.642794075E0
1.163765112E1,-7.189549255E-1,-8.255183258E0,2.153272247E0,8.561631164E0
1.164771612E1,-2.260299683E-1,-8.418493652E0,1.731449432E0,8.597676550E0
1.165778112E1,2.086660767E-1,-8.838370514E0,1.391206970E0,8.949625227E0
1.166784612E1,7.158114624E-1,-9.394015045E0,1.126108246E0,9.488309886E0
1.167791112E1,1.238674164E0,-9.870474243E0,9.782157898E-1,9.995873229E0
1.168797612E1,1.674717407E0,-1.006611740E1,9.075627136E-1,1.024475807E1
1.169804112E1,2.027084656E0,-1.001836670E1,8.831634521E-1,1.025946983E1
1.170810612E1,2.123184814E0,-9.775870972E0,1.107397156E0,1.006488428E1
1.171817212E1,2.048041077E0,-9.308842163E0,1.511556702E0,9.650586424E0
1.172823712E1,2.195334778E0,-9.024283905E0,1.177750854E0,9.361853014E0
1.173830212E1,2.623893585E0,-9.156608734E0,5.150788879E-1,9.539056941E0
1.174836712E1,2.991529083E0,-9.386530609E0,1.124162292E-1,9.852352031E0
1.175843212E1,2.902913361E0,-9.461973724E0,8.592132568E-2,9.897637860E0
1.176849712E1,2.432142334E0,-9.438173218E0,1.817221069E-1,9.748202549E0
1.177856212E1,1.959275665E0,-9.424401855E0,3.661386108E-1,9.632869196E0
1.178862712E1,1.666185150E0,-9.368717651E0,5.358856201E-1,9.530803575E0
1.179869212E1,1.615740051E0,-9.311985626E0,6.638694763E-1,9.474408419E0
1.180875813E1,1.646426239E0,-9.331145782E0,7.801776123E-1,9.507348636E0
1.181882312E1,1.758543091E0,-9.814790039E0,8.223898315E-1,1.000494390E1
1.182888812E1,1.901944885E0,-1.087204147E1,5.278024292E-1,1.104976269E1
1.183895312E1,2.120191040E0,-1.196417038E1,-1.187031555E-1,1.215115934E1
1.184901812E1,2.288890228E0,-1.255274643E1,-1.059047699E0,1.280359494E1
1.185908308E1,2.301763458E0,-1.272159531E1,-2.560575256E0,1.317928859E1
1.186914808E1,2.598895569E0,-1.234872070E1,-3.916455688E0,1.321301579E1
1.187921308E1,3.464395752E0,-1.162602356E1,-4.113745422E0,1.280973704E1
1.188927908E1,4.061653748E0,-1.134595596E1,-3.385060730E0,1.251744319E1
1.189934408E1,4.044289856E0,-1.163934586E1,-2.110012207E0,1.250131209E1
1.190940908E1,4.435725861E0,-1.225411743E1,-6.879693604E-1,1.305037776E1
1.191947408E1,5.375471649E0,-1.287427780E1,3.140469360E-1,1.395497581E1
1.192953908E1,6.485413513E0,-1.321437057E1,5.968089294E-1,1.473215392E1
1.193960408E1,7.219636688E0,-1.276784912E1,3.427871704E-2,1.466772989E1
1.194966908E1,7.692503357E0,-1.148277145E1,-9.385482788E-1,1.385314120E1
1.195973408E1,8.174201660E0,-1.030786469E1,-2.115850067E0,1.332465642E1
1.196980008E1,9.269024963E0,-1.025712021E1,-4.924160156E0,1.467551335E1
1.197986508E1,9.008267212E0,-1.200144287E1,-6.437662811E0,1.632871739E1
1.198993008E1,5.018613739E0,-1.424871964E1,-5.427413635E0,1.605208129E1
1.199999508E1,1.818717957E0,-1.511631546E1,-3.567082214E0,1.563760863E1
1.201006008E1,3.484753418E-1,-1.569246735E1,-9.945318604E-1,1.572781168E1
1.202012508E1,-9.192384338E-1,-1.631143021E1,1.130299530E0,1.637636503E1
1.203019008E1,-2.180964661E0,-1.676992676E1,1.800006866E0,1.700667737E1
1.204025508E1,-3.490441589E0,-1.731224899E1,2.036065979E0,1.777759017E1
1.205032108E1,-4.901257782E0,-1.816158279E1,2.537972260E0,1.898174704E1
1.206038608E1,-5.985752563E0,-1.874956009E1,3.747307434E0,2.003540742E1
1.207045108E1,-7.156168671E0,-1.859313538E1,5.853577423E0,2.076486941E1
1.208051608E1,-7.427853699E0,-1.734757553E1,6.102659454E0,1.983315002E1
1.209058108E1,-5.868546295E0,-1.527438675E1,5.557942200E0,1.728112981E1
1.210064608E1,-3.930526428E0,-1.292262726E1,4.833448792E0,1.434592487E1
1.211071108E1,-2.651286621E0,-1.049617310E1,4.265529785E0,1.163588049E1
1.212077608E1,6.352789307E-1,-8.551566925E0,2.633174286E0,8.970311199E0
1.213084208E1,4.769232330E0,-7.796387329E0,-1.055904236E0,9.200226419E0
1.214090708E1,4.758454742E0,-8.393046570E0,-4.321513367E-1,9.657788413E0
1.215097208E1,2.763852539E0,-9.358089752E0,-3.796105957E-1,9.765082123E0
1.216103708E1,2.698887634E-1,-9.820328522E0,-1.600471802E0,9.953552241E0
1.217110208E1,-9.792636108E-1,-9.634415131E0,-1.297801208E0,9.770629463E0
1.218116708E1,-9.765692139E-1,-9.037007446E0,-3.978726196E-1,9.098323672E0
1.219123208E1,-6.638694763E-1,-7.994425507E0,5.722599792E-1,8.042328229E0
1.220129708E1,-5.071453857E-1,-6.914571075E0,1.637444916E0,7.123883453E0
1.221136208E1,-7.056326294E-1,-5.836213531E0,2.527194672E0,6.398907618E0
1.222142808E1,-1.262624359E0,-4.789739685E0,3.344495087E0,5.976744424E0
1.223149308E1,-1.922003174E0,-3.802243195E0,3.801045685E0,5.709561963E0
1.224155808E1,-2.589016113E0,-2.987786865E0,4.063899078E0,5.669669347E0
1.225162308E1,-3.215613098E0,-2.301464081E0,4.209546204E0,5.775567829E0
1.226168808E1,-4.036056976E0,-1.701960754E0,3.987258453E0,5.923230225E0
1.227175308E1,-5.137167206E0,-1.092128906E0,3.233725433E0,6.167674815E0
1.228181808E1,-6.354286194E0,-5.733078003E-1,2.334694977E0,6.793852773E0
1.229188308E1,-7.248825989E0,-2.627037048E-1,1.783541107E0,7.469639237E0
1.230194908E1,-7.320377197E0,-3.132984924E-1,1.552571411E0,7.489763430E0
1.231201408E1,-6.682852936E0,-6.647676086E-1,1.399888916E0,6.860184277E0
1.232207908E1,-5.087021484E0,-1.281185760E0,5.780978394E-1,5.277634096E0
1.233214408E1,-3.566034393E0,-2.437381439E0,-5.318440247E-1,4.352044076E0
1.234220908E1,-2.749931488E0,-3.819457397E0,-1.760638733E0,5.024960373E0
1.235227408E1,-1.841021576E0,-5.607189789E0,-3.773802338E0,7.005106841E0
1.236233908E1,1.402583313E0,-8.415350189E0,-8.596323853E0,1.211124034E1
1.237240408E1,9.909393311E0,-1.351060455E1,-1.402224060E1,2.184847232E1
1.238247008E1,1.590981537E1,-2.029135391E1,-1.010862900E1,2.769558898E1
1.239253508E1,1.513547562E1,-2.629447037E1,-3.936064911E0,3.059369871E1
1.240260008E1,1.269075943E1,-2.877630936E1,-6.363117828E0,3.208770206E1
1.241266508E1,1.184202438E1,-2.499622009E1,-1.173619446E1,3.004634455E1
1.242273008E1,1.206640778E1,-1.740445724E1,-1.120794296E1,2.396103742E1
1.243279508E1,1.060110489E1,-1.138053406E1,-7.095993805E0,1.709541191E1
1.244286008E1,8.146359558E0,-7.612270203E0,-2.716101837E0,1.147549741E1
1.245292508E1,5.308860168E0,-5.505401459E0,1.291364594E0,7.756356363E0
1.246299108E1,2.232008514E0,-5.450465698E0,4.440665588E0,7.376242214E0
1.247305608E1,5.673202515E-1,-7.799530792E0,6.044729919E0,9.883991736E0
1.248312108E1,1.434766388E0,-9.926308136E0,6.502627716E0,1.195300443E1
1.249318608E1,4.759801941E0,-1.255409363E1,5.072950745E0,1.435255415E1
1.250325108E1,9.073980560E0,-1.599768265E1,-1.181493073E0,1.842983720E1
1.251331608E1,7.563022614E0,-1.737751328E1,-3.166964264E0,1.921475842E1
1.252338108E1,2.395318909E0,-1.507440262E1,-1.294657745E0,1.531833234E1
1.253344608E1,-1.274300079E0,-1.241907440E1,4.122427368E-1,1.249108457E1
1.254351208E1,-3.885919189E0,-1.033331177E1,1.160087585E-1,1.104043287E1
1.255357708E1,-5.767057343E0,-8.463250580E0,-2.523153076E0,1.054759983E1
1.256364208E1,-6.724915466E0,-7.012168121E0,-1.780697021E0,9.877543808E0
1.257370708E1,-6.017486572E0,-6.214476929E0,4.412823486E-1,8.661674102E0
1.258377208E1,-4.751269684E0,-6.459966431E0,1.485211487E0,8.155463387E0
1.259383708E1,-3.878734131E0,-6.984924774E0,1.582509155E0,8.144819690E0
1.260390208E1,-3.470383301E0,-7.525750122E0,1.356778564E0,8.397697496E0
1.261396708E1,-3.468587036E0,-8.065976715E0,1.271755371E0,8.871777619E0
1.262403308E1,-3.445085907E0,-8.868457947E0,1.022972717E0,9.568941239E0
1.263409808E1,-3.379671936E0,-9.791887665E0,6.807843018E-1,1.038107479E1
1.264416308E1,-3.463048553E0,-1.053853500E1,8.164022827E-1,1.112294646E1
1.265422808E1,-3.814517670E0,-1.111827942E1,1.520837402E0,1.185241025E1
1.266429308E1,-4.117487640E0,-1.126093277E1,2.558180237E0,1.225995911E1
1.267435808E1,-3.757037201E0,-1.070932983E1,3.149001617E0,1.177800005E1
1.268442308E1,-2.993175659E0,-9.684261475E0,2.923570404E0,1.054946846E1
1.269448808E1,-2.496059418E0,-8.928034058E0,2.468367004E0,9.593380031E0
1.270455408E1,-2.144889679E0,-8.569379883E0,2.299518127E0,9.128121763E0
1.271461908E1,-1.689536591E0,-8.374784546E0,2.192191315E0,8.820275100E0
1.272468408E1,-1.415755920E0,-8.253985748E0,2.125579834E0,8.640065694E0
1.273474908E1,-1.246607666E0,-8.075257416E0,1.912273407E0,8.391698433E0
1.274481408E1,-8.729846191E-1,-8.021219788E0,1.607956238E0,8.227246945E0
1.275487908E1,-3.390449524E-1,-8.190368042E0,1.395697632E0,8.315350385E0
1.276494408E1,1.097218323E-1,-8.461454315E0,1.250649261E0,8.554085082E0
1.277500908E1,5.939648438E-1,-9.024283905E0,1.155147858E0,9.117283631E0
1.278507508E1,1.195114746E0,-9.763446808E0,1.140328674E0,9.902198862E0
1.279514008E1,1.719174957E0,-1.027628036E1,1.209634552E0,1.048907605E1
1.280520508E1,1.954036560E0,-1.035486694E1,1.587299194E0,1.065650257E1
1.281527008E1,2.122286682E0,-1.002854553E1,1.911524963E0,1.042735604E1
1.282533508E1,2.458337860E0,-9.689350891E0,1.289268951E0,1.007914481E1
1.283540008E1,2.775228882E0,-9.569300537E0,3.842509460E-1,9.971010827E0
1.284546508E1,2.690505066E0,-9.356443176E0,-2.700384521E-1,9.739341209E0
1.285552975E1,2.234553223E0,-9.080417175E0,-4.073030090E-1,9.360186960E0
1.286559575E1,1.731150055E0,-8.748108215E0,-2.127076721E-1,8.920287126E0
1.287566075E1,1.402882690E0,-8.611741791E0,5.463638306E-2,8.725431889E0
1.288572575E1,1.124761047E0,-8.870703278E0,2.559677124E-1,8.945388953E0
1.289579075E1,1.039139099E0,-9.402247925E0,3.920347595E-1,9.467616773E0
1.290585575E1,1.089883575E0,-9.851014709E0,5.246589661E-1,9.924998944E0
1.291592075E1,1.031504974E0,-1.001776794E1,5.213658142E-1,1.008422032E1
1.292598575E1,9.476792908E-1,-1.017194733E1,4.052073669E-1,1.022403059E1
1.293605075E1,8.756790161E-1,-1.062086380E1,4.565505981E-2,1.065699986E1
1.294611675E1,5.809419250E-1,-1.138188126E1,-7.782316589E-1,1.142323767E1
1.295618175E1,1.212478638E-1,-1.224708206E1,-2.270179138E0,1.245630095E1
1.296624675E1,-2.799179077E-2,-1.304402481E1,-4.148173828E0,1.368775778E1
1.297631175E1,9.797126770E-1,-1.338501572E1,-5.298381958E0,1.442883689E1
1.298637675E1,3.049009552E0,-1.243883331E1,-4.543950806E0,1.358927969E1
1.299644175E1,3.998036041E0,-1.121393051E1,-2.435435486E0,1.215186717E1
1.300650675E1,4.462071075E0,-1.104089035E1,-4.167333984E-1,1.191574608E1
1.301657175E1,5.281167755E0,-1.193647797E1,1.012494507E0,1.309180600E1
1.302663775E1,6.324797516E0,-1.321766373E1,1.667232971E0,1.474752060E1
1.303670275E1,7.342381439E0,-1.411684387E1,1.915566559E0,1.602701598E1
1.304676775E1,8.051606598E0,-1.424348053E1,1.802252197E0,1.646065671E1
1.305683275E1,8.439001007E0,-1.390488464E1,9.958790588E-1,1.629583781E1
1.306689775E1,8.510402527E0,-1.343246704E1,-3.203338623E-1,1.590473941E1
1.307696275E1,8.086783447E0,-1.314790878E1,-1.866019592E0,1.554817034E1
1.308702775E1,7.681426392E0,-1.331136887E1,-5.436394958E0,1.630187850E1
1.309709275E1,4.651726685E0,-1.467608093E1,-6.720125427E0,1.679839273E1
1.310715775E1,7.111711121E-1,-1.571162750E1,-4.656666412E0,1.640260788E1
1.311722375E1,-1.043180695E0,-1.641860733E1,-2.115401001E0,1.658715811E1
1.312728875E1,-2.516716461E0,-1.704236023E1,-1.169068909E-1,1.722758170E1
1.313735375E1,-4.094136200E0,-1.719579117E1,1.291514282E0,1.772357736E1
1.314741875E1,-5.136418762E0,-1.723366241E1,1.973945160E0,1.809083684E1
1.315748375E1,-5.968538361E0,-1.726809082E1,2.376158752E0,1.842434642E1
1.316754875E1,-6.617888031E0,-1.694955322E1,3.250340881E0,1.848373643E1
1.317761375E1,-6.831793213E0,-1.594888412E1,3.781436462E0,1.775780293E1
1.318767975E1,-6.347699890E0,-1.457623856E1,3.804039459E0,1.634719366E1
1.319774475E1,-4.423301697E0,-1.324400894E1,4.234544220E0,1.459111838E1
1.320780975E1,-3.473077698E0,-1.179801590E1,2.650238800E0,1.258090671E1
1.321787475E1,-2.658172302E0,-1.081980011E1,1.541195068E0,1.124763249E1
1.322793975E1,-1.432670746E0,-1.038510406E1,4.161346436E-1,1.049171578E1
1.323800475E1,-2.234852600E-1,-1.050141220E1,-1.868115234E0,1.066862027E1
1.324806975E1,-2.875520325E-1,-1.055634796E1,-1.568139038E0,1.067605866E1
1.325813475E1,-7.161108398E-1,-1.030891251E1,-4.114942932E-1,1.034194466E1
1.326820075E1,-5.141807556E-1,-9.886341248E0,7.560777283E-1,9.928533560E0
1.327826575E1,7.334747314E-2,-9.154213715E0,1.466799774E0,9.271273384E0
1.328833075E1,2.215393066E-1,-8.134683838E0,1.913021851E0,8.359534282E0
1.329839575E1,-1.121168518E-1,-6.918612671E0,2.164798279E0,7.250249862E0
1.330846075E1,-7.554789734E-1,-5.717959442E0,2.254761200E0,6.192718041E0
1.331852575E1,-1.391506348E0,-4.676724701E0,2.367476807E0,5.423374436E0
1.332859075E1,-1.930236053E0,-3.720962219E0,2.594105530E0,4.929579552E0
1.333865575E1,-2.529889069E0,-2.794389038E0,2.817890167E0,4.706320621E0
1.334872175E1,-3.016527100E0,-2.169887695E0,3.017724609E0,4.786910295E0
1.335878675E1,-3.530558167E0,-1.885928192E0,3.165018311E0,5.102833234E0
1.336885175E1,-4.107608185E0,-1.680555267E0,3.085832977E0,5.405467248E0
1.337891675E1,-4.850662994E0,-1.397793274E0,2.759511566E0,5.753056718E0
1.338898175E1,-5.557493134E0,-1.080303497E0,2.316582642E0,6.117135008E0
1.339904675E1,-5.794749756E0,-8.274792480E-1,1.871857452E0,6.145542853E0
1.340911175E1,-5.494025116E0,-5.863307190E-1,1.187929688E0,5.651484109E0
1.341917675E1,-4.948110352E0,-6.930587769E-1,3.707789612E-1,5.010150053E0
1.342924275E1,-4.029919739E0,-1.356179810E0,-1.953437805E-1,4.256481642E0
1.343930775E1,-2.861150208E0,-2.246827698E0,-9.719288635E-1,3.765509385E0
1.344937275E1,-1.733844452E0,-3.319347382E0,-2.292333069E0,4.390794293E0
1.345943775E1,-7.484436035E-3,-4.884792023E0,-4.069587250E0,6.357891907E0
1.346950275E1,3.410807190E0,-7.445217590E0,-7.073241119E0,1.082107252E1
1.347956775E1,9.094188538E0,-1.108849136E1,-9.289532318E0,1.708667073E1
1.348963275E1,1.243673767E1,-1.578871719E1,-7.459587708E0,2.143831811E1
1.349969775E1,1.024813889E1,-2.064806213E1,-4.701123962E0,2.352588759E1
1.350976375E1,8.446784821E0,-2.330548599E1,-4.865631866E0,2.526199170E1
1.351982875E1,9.779912567E0,-2.237666748E1,-8.093818817E0,2.572687001E1
1.352989375E1,1.112920670E1,-1.801009781E1,-9.934840393E0,2.338640456E1
1.353995875E1,1.036923706E1,-1.340941498E1,-8.268804932E0,1.886018617E1
1.355002375E1,8.443491669E0,-1.022418869E1,-5.386997681E0,1.431245367E1
1.356008875E1,6.450835419E0,-7.823930054E0,-2.736160126E0,1.050303439E1
1.357015375E1,4.324956207E0,-5.705385590E0,-8.482859802E-1,7.209456292E0
1.358021875E1,2.072140961E0,-3.931873627E0,4.396357727E-1,4.466170394E0
1.359028475E1,5.123844910E-1,-2.901266785E0,2.490970001E0,3.858084806E0
1.360034975E1,-5.545967102E-1,-2.693498840E0,5.044659576E0,5.745529023E0
1.361041475E1,-1.955234070E0,-3.443139954E0,5.188360748E0,6.526656132E0
1.362047975E1,-3.576063538E0,-5.688321075E0,3.903283081E0,7.770511302E0
1.363054475E1,-3.812721405E0,-9.503587189E0,3.415746918E0,1.079455145E1
1.364060975E1,-3.200943604E0,-1.363349899E1,3.193758545E0,1.436378879E1
1.365067475E1,-1.924098816E0,-1.849928055E1,1.074166260E0,1.863006630E1
1.366073975E1,5.947282562E0,-2.718302261E1,-1.679507446E1,3.250171402E1
1.367080575E1,7.184908905E0,-3.096954849E1,-1.255768616E1,3.418232484E1
1.368087075E1,2.988834686E0,-2.594853973E1,-4.900808716E-1,2.612470146E1
1.369093575E1,-2.478845215E-1,-1.577749054E1,5.057532806E0,1.657013254E1
1.370100075E1,-2.800675964E0,-8.328979797E0,3.341201935E0,9.401027640E0
1.371106575E1,-3.712579651E0,-5.655688934E0,2.415377197E0,7.183600211E0
1.372113075E1,-3.849095764E0,-4.507127380E0,2.271077271E0,6.347245654E0
1.373119575E1,-3.634442139E0,-3.636837158E0,2.055974579E0,5.537398816E0
1.374126075E1,-3.196452942E0,-3.986510010E0,1.245410156E0,5.259336453E0
1.375132675E1,-2.646945648E0,-5.007686462E0,5.695655823E-1,5.692771726E0
1.376139175E1,-2.602188721E0,-6.120921478E0,1.266366577E-1,6.652300559E0
1.377145675E1,-3.307222595E0,-7.734266510E0,3.963757324E-1,8.421028053E0
1.378152175E1,-4.276756439E0,-9.460327148E0,1.403930511E0,1.047661473E1
1.379158675E1,-4.718188477E0,-1.102666992E1,2.684517517E0,1.229045916E1
1.380165175E1,-5.087021484E0,-1.240545273E1,3.820505219E0,1.394163925E1
1.381171675E1,-4.851411438E0,-1.281904266E1,4.465214539E0,1.441534560E1
1.382178175E1,-3.133883057E0,-1.157932068E1,4.323609009E0,1.275129347E1
1.383184775E1,-1.440753937E0,-9.836794281E0,3.913162537E0,1.068415344E1
1.384191275E1,-9.029223633E-1,-8.639284515E0,3.598217468E0,9.402110119E0
1.385197775E1,-1.212628326E0,-7.879015503E0,3.311114502E0,8.632081557E0
1.386204208E1,-1.610950012E0,-7.441026306E0,2.944676514E0,8.163035722E0
1.387210708E1,-1.757195892E0,-7.114106140E0,2.592458954E0,7.772971568E0
1.388217208E1,-1.398242340E0,-6.891668701E0,2.115401001E0,7.343371196E0
1.389223708E1,-9.660910034E-1,-6.896009674E0,1.769620056E0,7.184694593E0
1.390230308E1,-4.619393921E-1,-7.444169769E0,1.614542542E0,7.631238378E0
1.391236808E1,2.230361938E-2,-8.350684662E0,1.479822693E0,8.480819947E0
1.392243308E1,2.311193848E-1,-9.004974060E0,1.369202728E0,9.111404398E0
1.393249808E1,3.423381042E-1,-9.143136749E0,1.331331482E0,9.245895766E0
1.394256308E1,4.746629333E-1,-8.919950867E0,1.321751404E0,9.029831401E0
1.395262808E1,6.474037170E-1,-8.604107666E0,1.308129730E0,8.727027197E0
1.396269308E1,8.062234497E-1,-8.383915558E0,1.287472687E0,8.520423831E0
1.397275808E1,8.003855896E-1,-8.420289917E0,1.273102570E0,8.553519131E0
1.398282408E1,6.149212646E-1,-8.616382141E0,1.219214630E0,8.723912750E0
1.399288908E1,4.474195862E-1,-8.848399658E0,1.138831787E0,8.932597530E0
1.400295408E1,5.769003296E-1,-9.118737488E0,1.009949799E0,9.192615839E0
1.401301908E1,8.536747742E-1,-9.330547028E0,8.446934509E-1,9.407516967E0
1.402308408E1,1.139580231E0,-9.505982208E0,6.815327454E-1,9.598272122E0
1.403314908E1,1.468296661E0,-9.834998016E0,6.271957397E-1,9.963757101E0
1.404321408E1,1.898202667E0,-1.041294617E1,6.878196716E-1,1.060687122E1
1.405327908E1,2.409988403E0,-1.128458359E1,9.304650879E-1,1.157651226E1
1.406334508E1,3.459905090E0,-1.286005737E1,1.515149231E0,1.340327184E1
1.407341008E1,5.061574402E0,-1.400712204E1,-3.237767029E-1,1.489710826E1
1.408347508E1,6.520740051E0,-1.389410706E1,-3.392245789E0,1.571857478E1
1.409354008E1,7.833959198E0,-1.296394135E1,-6.731052704E0,1.657533597E1
1.410360508E1,8.306227112E0,-1.160701309E1,-8.225095825E0,1.647326207E1
1.411367008E1,7.566615143E0,-1.050081345E1,-5.945336609E0,1.424316591E1
1.412373508E1,6.852300568E0,-1.003812561E1,-2.799777832E0,1.247223896E1
1.413380108E1,7.043303375E0,-1.030816406E1,-1.588496704E0,1.258529660E1
1.414386608E1,7.910150757E0,-1.135403915E1,-1.160686340E0,1.388639200E1
1.415393108E1,9.165440369E0,-1.252026398E1,-8.122109985E-1,1.553776026E1
1.416399608E1,1.008887009E1,-1.310270279E1,-2.186054077E0,1.668067602E1
1.417406108E1,9.649533691E0,-1.306617874E1,-4.005370789E0,1.672965996E1
1.418412608E1,7.567064209E0,-1.349099533E1,-5.657036133E0,1.647026028E1
1.419419108E1,4.881199493E0,-1.472577759E1,-6.318510590E0,1.675106594E1
1.420425608E1,3.263962555E0,-1.526316010E1,-3.161575470E0,1.592523366E1
1.421432208E1,2.453098755E0,-1.524774216E1,1.347647552E0,1.550249942E1
1.422438708E1,1.546134796E0,-1.580009354E1,3.385659485E0,1.623256538E1
1.423445208E1,5.560935974E-1,-1.713980759E1,3.510050812E0,1.750436234E1
1.424451708E1,-1.088985443E0,-1.919368652E1,3.530707855E0,1.954608374E1
1.425458208E1,-3.543880463E0,-2.161340469E1,3.958967285E0,2.225694887E1
1.426464708E1,-5.797893219E0,-2.309771805E1,5.462291107E0,2.443269877E1
1.427471208E1,-6.742578735E0,-2.244881744E1,7.083719330E0,2.448654431E1
1.428477708E1,-6.554869080E0,-1.994557297E1,7.263794861E0,2.221609564E1
1.429484308E1,-5.080435181E0,-1.631607056E1,5.761518860E0,1.803385925E1
1.430490808E1,-3.102298737E0,-1.301438644E1,4.535867615E0,1.412701692E1
1.431497308E1,-1.949246521E0,-1.046174469E1,3.950135651E0,1.135126582E1
1.432503808E1,-5.965095520E-1,-8.210426331E0,7.134164429E-1,8.262922437E0
1.433510308E1,5.322930908E-1,-7.299420776E0,-3.253634033E0,8.009432816E0
1.434516808E1,2.116598511E-1,-7.757168884E0,-3.251239014E0,8.413621344E0
1.435523308E1,-6.222560120E-1,-8.688232727E0,-2.092798004E0,8.958370050E0
1.436529808E1,-1.337618408E0,-9.373358002E0,-1.679208069E0,9.616070038E0
1.437536408E1,-1.798060913E0,-9.601333923E0,-1.546583862E0,9.889922032E0
1.438542908E1,-1.651815033E0,-9.129664764E0,-1.282383270E0,9.366097291E0
1.439549408E1,-9.557624817E-1,-8.188871155E0,-7.828720093E-2,8.244829992E0
1.440555908E1,-2.749781799E-1,-7.123835907E0,1.513352966E0,7.287996174E0
1.441562408E1,4.730163574E-2,-6.164480896E0,2.914888458E0,6.819064224E0
1.442568908E1,3.143463135E-2,-5.357059937E0,3.761228485E0,6.545679416E0
1.443575408E1,-6.198609924E-1,-4.537214813E0,4.014801178E0,6.090088210E0
1.444582008E1,-1.523232422E0,-3.670367432E0,3.999981995E0,5.638412015E0
1.445588508E1,-2.247875519E0,-2.869981842E0,3.982318726E0,5.398944578E0
1.446595008E1,-2.882106628E0,-2.042652283E0,4.089495850E0,5.403974766E0
1.447601508E1,-3.383264465E0,-1.375489655E0,4.235741730E0,5.592848848E0
1.448608008E1,-3.870351563E0,-9.117539978E-1,4.060905304E0,5.683473274E0
1.449614508E1,-4.544998627E0,-5.924679565E-1,3.252586212E0,5.620262259E0
1.450621008E1,-5.303920441E0,-4.549040222E-1,2.560575256E0,5.907203683E0
1.451627508E1,-6.024521942E0,-5.812413025E-1,2.419418793E0,6.518151070E0
1.452634108E1,-6.379733276E0,-1.013692017E0,2.501747589E0,6.927287289E0
1.453640608E1,-6.062692566E0,-1.517394562E0,2.316732330E0,6.665281397E0
1.454647108E1,-5.297783203E0,-2.032772827E0,1.726958771E0,5.931362308E0
1.455653608E1,-4.620142365E0,-2.642604675E0,5.270539856E-1,5.348538197E0
1.456660108E1,-4.321663055E0,-3.633544006E0,-1.517544250E0,5.846567725E0
1.457666608E1,-4.079915771E0,-5.310806122E0,-5.717809753E0,8.805891366E0
1.458673108E1,1.359023895E0,-9.726473694E0,-2.132600235E1,2.347870552E1
1.459679608E1,1.671858353E1,-1.834031113E1,-2.368150406E1,3.430293984E1
1.460686208E1,1.967448669E1,-2.527389267E1,-3.762276306E0,3.224918294E1
1.461692708E1,1.609138779E1,-2.844250351E1,-6.923103333E-1,3.268620597E1
1.462699208E1,9.983189850E0,-2.785811874E1,-5.991889801E0,3.019340330E1
1.463705708E1,8.453670502E0,-2.152179520E1,-7.452552338E0,2.429388297E1
1.464712208E1,8.950786743E0,-1.321646622E1,-5.504503326E0,1.688464153E1
1.465718708E1,7.376660156E0,-8.082292786E0,-2.340682526E0,1.119005659E1
1.466725208E1,4.006119232E0,-6.931934967E0,1.315464478E0,8.113640396E0
1.467731808E1,2.499801636E-2,-9.422904968E0,2.993624725E0,9.887039594E0
1.468738308E1,-3.634442139E-1,-1.290346710E1,2.405048676E0,1.313072024E1
1.469744808E1,4.788242798E0,-1.750669464E1,-2.521506500E0,1.832401761E1
1.470751308E1,1.060784088E1,-2.185215820E1,-7.533683624E0,2.543225305E1
1.471757808E1,8.317304077E0,-2.103650436E1,-2.891836395E0,2.280514812E1
1.472764308E1,2.993924103E0,-1.653132294E1,3.999682617E0,1.726979098E1
1.473770808E1,-2.073787537E0,-1.107442062E1,7.701334991E0,1.364748869E1
1.474777308E1,-4.603676605E0,-7.294181671E0,5.049599304E0,9.994867566E0
1.475783908E1,-4.993466034E0,-5.121449890E0,2.775977325E0,7.672678940E0
1.476790408E1,-4.956043854E0,-4.281546478E0,2.084265747E0,6.873003320E0
1.477796908E1,-4.681514740E0,-4.101770325E0,1.666783905E0,6.443544727E0
1.478803408E1,-4.126618652E0,-4.669689331E0,1.338366852E0,6.373868980E0
1.479809908E1,-4.017645264E0,-5.696404266E0,1.219963074E0,7.076637968E0
1.480816408E1,-4.328399048E0,-7.185058594E0,1.251697083E0,8.480969927E0
1.481822908E1,-4.577780457E0,-9.149124298E0,1.214424591E0,1.030229957E1
1.482829508E1,-4.873565369E0,-1.085557571E1,1.140029297E0,1.195386257E1
1.483836008E1,-5.275479584E0,-1.182510956E1,1.475930786E0,1.303235484E1
1.484842508E1,-5.949976959E0,-1.206865311E1,2.566113739E0,1.369815876E1
1.485849058E1,-6.473737793E0,-1.185714294E1,3.791315918E0,1.403122219E1
1.486855558E1,-6.103707275E0,-1.108130630E1,4.422253876E0,1.340175068E1
1.487862058E1,-4.535717926E0,-9.608668671E0,3.838916931E0,1.129763400E1
1.488868558E1,-3.149450684E0,-8.414002991E0,3.050207062E0,9.487794741E0
1.489875058E1,-2.516716461E0,-7.885601807E0,2.487078094E0,8.643039688E0
1.490881658E1,-2.102677460E0,-7.850574646E0,2.240989838E0,8.430587775E0
1.491888158E1,-1.591640167E0,-8.065228271E0,2.041754150E0,8.470536317E0
1.492894658E1,-1.226998444E0,-8.302035828E0,1.758992157E0,8.574577393E0
1.493901158E1,-1.028361511E0,-8.454568634E0,1.360221405E0,8.624816546E0
1.494907658E1,-7.470964050E-1,-8.457861786E0,9.803114319E-1,8.547197759E0
1.495914158E1,-4.354444885E-1,-8.499924316E0,7.324269104E-1,8.542527405E0
1.496920658E1,-1.766326904E-2,-8.830586700E0,6.231541443E-1,8.852564292E0
1.497927258E1,4.426295471E-1,-9.311386871E0,6.188131714E-1,9.342418109E0
1.498933758E1,9.482780457E-1,-9.658664703E0,6.056405640E-1,9.723982497E0
1.499940258E1,1.449435883E0,-9.788893890E0,6.231541443E-1,9.915222088E0
1.500946758E1,1.664837952E0,-9.708660736E0,8.056246948E-1,9.883259070E0
1.501953258E1,1.843266907E0,-9.520951080E0,1.141226807E0,9.764657751E0
1.502959758E1,2.262994080E0,-9.435927887E0,8.958869934E-1,9.744767355E0
1.503966258E1,2.640509033E0,-9.450298004E0,5.177732849E-1,9.825910110E0
1.504972758E1,2.812800751E0,-9.270970917E0,2.806663513E-1,9.692343545E0
1.505979358E1,2.724185028E0,-8.890611877E0,2.203417969E-1,9.301221110E0
1.506985858E1,2.466720428E0,-8.524622955E0,2.553689575E-1,8.878013264E0
1.507992358E1,2.076781311E0,-8.452772369E0,2.848576355E-1,8.708818819E0
1.508998858E1,1.978735199E0,-8.753646698E0,2.863545227E-1,8.979071356E0
1.510005358E1,2.215093689E0,-9.389674072E0,4.105961609E-1,9.656148738E0
1.511011858E1,2.367177429E0,-1.032492920E1,6.274951172E-1,1.061138267E1
1.512018358E1,2.518662415E0,-1.135164413E1,7.921527100E-1,1.165465533E1
1.513024958E1,2.606080627E0,-1.231189728E1,3.474275208E-1,1.258948675E1
1.514031458E1,2.445614319E0,-1.304477325E1,-8.280780029E-1,1.329785140E1
1.515037958E1,2.146985321E0,-1.335672455E1,-2.581980743E0,1.377237311E1
1.516044458E1,2.372266846E0,-1.300390823E1,-4.380640411E0,1.392549065E1
1.517050958E1,3.607498169E0,-1.190234894E1,-4.651127930E0,1.327828846E1
1.518057458E1,4.822820892E0,-1.070678513E1,-2.960543518E0,1.211031242E1
1.519063958E1,5.382956085E0,-1.006656647E1,-1.225351868E0,1.148100448E1
1.520070458E1,6.184539185E0,-1.045710434E1,-5.680686951E-1,1.216232947E1
1.521077058E1,7.549700317E0,-1.169218597E1,-5.658233643E-1,1.392929804E1
1.522083558E1,8.639284515E0,-1.295540909E1,-6.024971008E-1,1.558341632E1
1.523090058E1,8.876690826E0,-1.337932755E1,-9.876461792E-1,1.608656242E1
1.524096558E1,8.155191193E0,-1.292502228E1,-1.926793213E0,1.540376176E1
1.525103058E1,7.279961243E0,-1.252475464E1,-3.319048004E0,1.486214635E1
1.526109558E1,6.263724518E0,-1.312455734E1,-4.466262360E0,1.521301251E1
1.527116058E1,4.012256470E0,-1.448986816E1,-4.099225616E0,1.558390619E1
1.528122558E1,1.819915466E0,-1.537407944E1,-3.278931427E0,1.582484762E1
1.529129158E1,6.265969849E-1,-1.557406357E1,-1.311273193E0,1.564172360E1
1.530135658E1,1.847158813E-1,-1.578048431E1,9.313632202E-1,1.580902409E1
1.531142158E1,-4.505630493E-1,-1.640094406E1,2.490820312E0,1.659512455E1
1.532148658E1,-1.661395111E0,-1.736868164E1,3.363505554E0,1.776920103E1
1.533155158E1,-3.234773254E0,-1.859463226E1,3.556753693E0,1.920610850E1
1.534161658E1,-4.837640076E0,-1.957329712E1,3.838916931E0,2.052447331E1
1.535168158E1,-6.048172760E0,-1.964050735E1,4.719086609E0,2.108553299E1
1.536174758E1,-6.353537750E0,-1.840153381E1,5.271288300E0,2.016854901E1
1.537181258E1,-5.818999329E0,-1.611069763E1,5.131329346E0,1.788143932E1
1.538187758E1,-4.896018677E0,-1.355356522E1,4.520449677E0,1.510313193E1
1.539194258E1,-3.786675568E0,-1.147004791E1,4.111500092E0,1.275951974E1
1.540200758E1,-2.317780151E0,-9.746531982E0,2.513123932E0,1.032873576E1
1.541207258E1,-5.502557373E-1,-8.602461090E0,-1.097218323E0,8.689591833E0
1.542213758E1,3.065625000E-1,-8.592731323E0,-2.147883453E0,8.862415895E0
1.543220258E1,6.361770630E-1,-9.250762939E0,-1.541195068E0,9.399820129E0
1.544226858E1,2.424957275E-2,-9.736203461E0,-1.279539185E0,9.819952464E0
1.545233358E1,-3.956272888E-1,-9.811945953E0,-1.193168793E0,9.892141129E0
1.546239858E1,-4.522096252E-1,-9.305099945E0,-8.364605713E-1,9.353557870E0
1.547246358E1,-5.587879944E-1,-8.381520538E0,5.938151550E-1,8.421089419E0
1.548252858E1,-6.509962463E-1,-7.179669800E0,1.969604187E0,7.473338959E0
1.549259358E1,-7.652087402E-1,-6.035598907E0,2.803520050E0,6.698785208E0
1.550265858E1,-8.952882385E-1,-4.984484711E0,3.286565552E0,6.037229662E0
1.551272458E1,-1.225950623E0,-4.086801453E0,3.555256805E0,5.553805182E0
1.552278958E1,-1.952090607E0,-3.274889832E0,3.758534088E0,5.353703357E0
1.553285458E1,-2.651136932E0,-2.580783234E0,3.827540588E0,5.323442128E0
1.554291958E1,-3.068169708E0,-1.992356873E0,4.003724213E0,5.423371538E0
1.555298458E1,-3.456911316E0,-1.630858612E0,4.189038849E0,5.670800837E0
1.556304958E1,-3.902085571E0,-1.360221405E0,3.938759308E0,5.708791375E0
1.557311458E1,-4.646188202E0,-1.154249725E0,3.248694305E0,5.785617679E0
1.558318058E1,-5.439388733E0,-1.034947815E0,2.611020355E0,6.121723129E0
1.559324558E1,-6.110892334E0,-1.035396881E0,2.229314117E0,6.586720979E0
1.560331058E1,-6.278094635E0,-1.111139374E0,1.990410919E0,6.679134568E0
1.561337558E1,-5.915698242E0,-1.354682922E0,1.600172424E0,6.276241176E0
1.562344058E1,-5.309309235E0,-1.820663910E0,8.214916992E-1,5.672603479E0
1.563350558E1,-4.661456451E0,-2.453547821E0,-4.963677979E-1,5.291073062E0
1.564357058E1,-4.275858307E0,-3.546574860E0,-2.070344696E0,5.928531408E0
1.565363558E1,-3.823798370E0,-5.564528503E0,-5.482499084E0,8.697310369E0
1.566370158E1,1.043031006E0,-1.035980667E1,-1.715791992E1,2.007007035E1
1.567376658E1,1.497426086E1,-1.802207291E1,-1.825723389E1,2.970437997E1
1.568383158E1,2.056513458E1,-2.501193741E1,-2.999911652E0,3.251955171E1
1.569389658E1,1.786909103E1,-2.851136032E1,-2.517764282E-1,3.364915264E1
1.570396158E1,1.090018295E1,-2.750380554E1,-4.589755554E0,2.993892389E1
1.571402658E1,8.729546814E0,-2.102467896E1,-7.325765991E0,2.391461813E1
1.572409158E1,8.898395691E0,-1.299178345E1,-7.060816956E0,1.725754963E1
1.573415758E1,7.214098206E0,-8.543783112E0,-4.789589996E0,1.216468722E1
1.574422258E1,4.264631653E0,-8.009993134E0,-1.174457703E0,9.150214425E0
1.575428758E1,4.022135925E-1,-1.125614273E1,9.848020935E-1,1.130629737E1
1.576435258E1,-1.198258209E0,-1.534758453E1,5.301974487E-1,1.540341790E1
1.577441758E1,2.852168884E0,-1.752465729E1,-2.943778381E0,1.799761961E1
1.578448258E1,9.138795776E0,-1.813344131E1,-3.737427979E0,2.064721894E1
1.579454758E1,9.323511658E0,-1.556583069E1,6.586303711E-3,1.814450325E1
1.580461358E1,3.501069489E0,-1.183947968E1,3.205583954E0,1.275564718E1
1.581467858E1,-5.852828979E-1,-9.072633362E0,4.772076416E0,1.026781114E1
1.582474358E1,-2.899021454E0,-7.138056335E0,4.974305878E0,9.170599359E0
1.583480858E1,-3.929927673E0,-5.900280304E0,3.787424011E0,8.037550611E0
1.584487358E1,-4.066593475E0,-5.312003632E0,2.524799652E0,7.150467003E0
1.585493858E1,-4.121080170E0,-5.250331879E0,1.814526672E0,6.916776247E0
1.586500346E1,-4.198768616E0,-5.775739288E0,1.400038605E0,7.276601563E0
1.587506846E1,-3.939208374E0,-6.778354340E0,1.046623535E0,7.909416602E0
1.588513446E1,-3.585793304E0,-7.966134338E0,8.274792480E-1,8.775074463E0
1.589519946E1,-3.287164307E0,-9.152716827E0,6.381230164E-1,9.746018443E0
1.590526446E1,-3.003653870E0,-1.027777725E1,4.614903259E-1,1.071763104E1
1.591532946E1,-3.048859863E0,-1.103385498E1,5.575904846E-1,1.146090788E1
1.592539446E1,-3.312162323E0,-1.141930344E1,1.121318207E0,1.194270760E1
1.593545946E1,-3.728147278E0,-1.147513733E1,2.085762634E0,1.224451978E1
1.594552446E1,-4.099375305E0,-1.135583542E1,2.962040405E0,1.243115277E1
1.595559046E1,-4.050726471E0,-1.097757202E1,3.449576569E0,1.219897745E1
1.596565546E1,-3.359913025E0,-1.023511597E1,3.343596954E0,1.127946164E1
1.597572046E1,-2.502795410E0,-9.420959015E0,2.886447601E0,1.016612185E1
1.598578546E1,-1.926942902E0,-8.922495575E0,2.600542145E0,9.491409573E0
1.599585046E1,-1.457968140E0,-8.594377899E0,2.381397858E0,9.036595505E0
1.600591546E1,-1.212778015E0,-8.458460541E0,2.180964661E0,8.818899709E0
1.601598046E1,-1.084794159E0,-8.435558167E0,1.920805664E0,8.719226706E0
1.602604646E1,-9.759704590E-1,-8.275989990E0,1.588496704E0,8.483386731E0
1.603611146E1,-6.846762085E-1,-8.099806366E0,1.278491364E0,8.228619863E0
1.604617646E1,-2.803669739E-1,-8.098159790E0,1.048868866E0,8.170613412E0
1.605624146E1,9.280700684E-2,-8.393046570E0,9.204359436E-1,8.443876254E0
1.606630646E1,4.447251892E-1,-8.813372498E0,8.081694031E-1,8.861515280E0
1.607637146E1,6.379733276E-1,-9.128167877E0,6.697073364E-1,9.174909628E0
1.608643646E1,7.866142273E-1,-9.206904144E0,5.858816528E-1,9.259001198E0
1.609650146E1,9.523196411E-1,-9.135352936E0,5.528004456E-1,9.201476745E0
1.610656746E1,1.078357544E0,-8.983867950E0,7.057823181E-1,9.075839742E0
1.611663246E1,1.135388947E0,-8.818461914E0,1.141376495E0,8.964213233E0
1.612669746E1,1.426533508E0,-8.964109039E0,9.297166443E-1,9.124397063E0
1.613676246E1,1.964664459E0,-9.436975708E0,4.550537109E-1,9.650051338E0
1.614682746E1,2.242935791E0,-9.811496887E0,1.889071655E-1,1.006637562E1
1.615689246E1,2.165995789E0,-9.958042145E0,1.101708984E-1,1.019148069E1
1.616695746E1,1.878294067E0,-9.903106384E0,1.573228455E-1,1.008088563E1
1.617702346E1,1.591041412E0,-9.768536224E0,2.359094238E-1,9.900068990E0
1.618708846E1,1.508712616E0,-9.662855988E0,3.993695068E-1,9.788079260E0
1.619715346E1,1.531764679E0,-9.686357117E0,5.888754272E-1,9.824387589E0
1.620721846E1,1.863474884E0,-1.043450134E1,2.465373230E-1,1.060245903E1
1.621728346E1,2.232756958E0,-1.168769531E1,-8.801696777E-1,1.193156000E1
1.622734846E1,2.323318634E0,-1.242745697E1,-2.693947906E0,1.292659474E1
1.623741346E1,2.569706268E0,-1.223645416E1,-5.095404053E0,1.350175334E1
1.624747946E1,3.497626648E0,-1.154459290E1,-6.451284485E0,1.367955002E1
1.625754446E1,4.688999176E0,-1.104568039E1,-4.928800507E0,1.297254189E1
1.626760946E1,4.988975372E0,-1.071636520E1,-1.992506561E0,1.198751187E1
1.627767446E1,4.806355133E0,-1.035157379E1,1.182540894E-1,1.141359337E1
1.628773946E1,5.100044403E0,-1.029139893E1,1.159638519E0,1.154418062E1
1.629780446E1,6.212980042E0,-1.096110626E1,1.281934204E0,1.266453026E1
1.630786946E1,7.590265961E0,-1.190249863E1,1.001716919E0,1.415220999E1
1.631793446E1,8.648714905E0,-1.227327759E1,4.429289246E-1,1.502097861E1
1.632800046E1,9.557325439E0,-1.216849548E1,-6.441105652E-1,1.548643375E1
1.633806546E1,1.057281372E1,-1.179517181E1,-3.174748077E0,1.615516925E1
1.634813046E1,1.079061081E1,-1.216894455E1,-5.836961975E0,1.727977483E1
1.635819546E1,7.535330200E0,-1.393916336E1,-5.955066376E0,1.692761921E1
1.636826046E1,3.636687469E0,-1.515942581E1,-4.680616608E0,1.627703470E1
1.637832546E1,1.629212036E0,-1.540611282E1,-2.061812439E0,1.562861845E1
1.638839046E1,3.498225403E-1,-1.584095856E1,8.369096375E-1,1.586690775E1
1.639845646E1,-5.369334412E-1,-1.637998764E1,2.240989838E0,1.654129161E1
1.640852146E1,-1.455124054E0,-1.727318024E1,2.382595367E0,1.749733986E1
1.641858646E1,-2.902464294E0,-1.862816254E1,2.386038208E0,1.900331331E1
1.642865146E1,-4.559967499E0,-1.985905289E1,2.858306122E0,2.057535417E1
1.643871646E1,-5.974226532E0,-2.024120819E1,4.405189362E0,2.155930391E1
1.644878146E1,-6.532415771E0,-1.932152069E1,5.616171112E0,2.115502294E1
1.645884646E1,-5.870192871E0,-1.724818222E1,5.314398651E0,1.897898278E1
1.646891246E1,-4.397405548E0,-1.440918594E1,4.446353760E0,1.570770120E1
1.647897746E1,-2.260149994E0,-1.215322723E1,4.073628845E0,1.301551621E1
1.648904246E1,-8.361611938E-1,-1.007869125E1,1.547781372E0,1.023107082E1
1.649910746E1,2.604583740E-1,-8.590635681E0,-1.224304047E0,8.681346691E0
1.650917246E1,7.945477295E-1,-8.278534698E0,-1.251996460E0,8.410287628E0
1.651923746E1,7.131170654E-1,-8.601862335E0,-9.071136475E-2,8.631848014E0
1.652930246E1,4.593946838E-1,-8.981023865E0,-5.456153870E-1,9.009302375E0
1.653936846E1,3.239263916E-1,-9.338330841E0,-1.095871124E0,9.407990472E0
1.654943346E1,4.311035156E-1,-9.402098236E0,-1.204245758E0,9.488704302E0
1.655949846E1,5.918692017E-1,-8.852740631E0,-9.770182800E-1,8.926135253E0
1.656956346E1,3.963757324E-1,-8.047565002E0,3.917353821E-1,8.066837844E0
1.657962846E1,-1.308279419E-1,-7.122788086E0,1.624571686E0,7.306877529E0
1.658969346E1,-5.358856201E-1,-6.090983734E0,2.218087463E0,6.504396071E0
1.659975846E1,-7.948471069E-1,-5.144352264E0,2.656525726E0,5.844080003E0
1.660982346E1,-9.873468018E-1,-4.259542236E0,3.036884766E0,5.323647514E0
1.661988946E1,-1.345851288E0,-3.555107117E0,3.390599213E0,5.093747670E0
1.662995446E1,-1.997595978E0,-3.102747803E0,3.559597778E0,5.127199037E0
1.664001946E1,-2.790347443E0,-2.828667755E0,3.503015442E0,5.297029102E0
1.665008446E1,-3.623664551E0,-2.590662689E0,3.135679321E0,5.447473061E0
1.666014946E1,-4.519102478E0,-2.414029999E0,2.796933746E0,5.837179663E0
1.667021446E1,-5.378615112E0,-2.362237701E0,2.488275604E0,6.379747876E0
1.668028046E1,-6.124064941E0,-2.389930115E0,2.194436646E0,6.930475420E0
1.669034546E1,-6.706503754E0,-2.407443695E0,2.059567108E0,7.417195859E0
