"Time (s)","Acceleration x (m/s^2)","Acceleration y (m/s^2)","Acceleration z (m/s^2)","Absolute acceleration (m/s^2)"
3.326874983E-3,-3.949836273E0,4.629722443E0,7.980953522E0,1.003649120E1
1.339287503E-2,-4.082011414E0,4.843028870E0,6.783144379E0,9.280559976E0
2.345887502E-2,-4.093986511E0,5.094954987E0,6.030359802E0,8.892948398E0
3.352487501E-2,-4.030518494E0,5.251080322E0,5.639971619E0,8.696447765E0
4.358987499E-2,-3.906875610E0,5.370831299E0,5.528752899E0,8.641563197E0
5.365587503E-2,-3.670068054E0,5.425018616E0,5.706283722E0,8.686880937E0
6.372187502E-2,-3.273692322E0,5.386398926E0,6.043233032E0,8.732183020E0
7.378787501E-2,-2.871329041E0,5.212460632E0,6.511159973E0,8.820968229E0
8.385287499E-2,-2.649640045E0,5.059628448E0,7.196135559E0,9.187208466E0
9.391887503E-2,-2.835703125E0,5.239853668E0,8.380622406E0,1.028261205E1
1.039848750E-1,-3.009940796E0,5.713319092E0,9.615704041E0,1.158289786E1
1.140498750E-1,-2.771037598E0,6.011648712E0,1.023436752E1,1.218855398E1
1.241158750E-1,-2.277813263E0,5.974226532E0,1.013093262E1,1.197980015E1
1.341818750E-1,-1.969155121E0,5.653742981E0,9.530980225E0,1.125530833E1
1.442478750E-1,-1.639540558E0,5.639522552E0,8.829688568E0,1.060451357E1
1.543128750E-1,-1.433868256E0,5.870641937E0,7.811056824E0,9.875880904E0
1.643788750E-1,-1.345701599E0,5.171296234E0,6.551725616E0,8.454485560E0
1.744443750E-1,-1.683099976E0,4.673431549E0,6.965914307E0,8.555568368E0
1.845103750E-1,-3.269800415E0,6.614295502E0,7.627089386E0,1.061192689E1
1.945753750E-1,-3.317401428E0,7.475454712E0,8.272547150E0,1.163282475E1
2.046413750E-1,-2.328108673E0,6.991660767E0,9.325307922E0,1.188548603E1
2.147073750E-1,-1.053958282E0,6.383176117E0,8.875193939E0,1.098293371E1
2.247723750E-1,-3.742218018E-3,6.120322723E0,8.184230804E0,1.021958894E1
2.348383750E-1,-3.394940186E-1,5.943690033E0,7.496411133E0,9.572820236E0
2.449043750E-1,-1.247954865E0,5.146896973E0,7.714208221E0,9.357186985E0
2.549703750E-1,-1.143023071E0,4.814438324E0,8.261769562E0,9.630272811E0
2.650353750E-1,-6.744973755E-1,4.547842712E0,8.404422913E0,9.579777896E0
2.751013750E-1,1.242416382E-2,4.449646912E0,7.995323639E0,9.150120878E0
2.851673750E-1,9.687854004E-1,4.593797150E0,7.043303375E0,8.464611027E0
2.952333750E-1,1.560804291E0,4.886139221E0,6.450236664E0,8.241117615E0
3.052983750E-1,1.592538300E0,5.076393585E0,6.471043396E0,8.377371467E0
3.153643750E-1,1.372495880E0,5.137616272E0,6.364015961E0,8.293343418E0
3.254303750E-1,1.141975250E0,5.034031677E0,6.176306305E0,8.049369042E0
3.354963750E-1,6.330335999E-1,4.698130188E0,6.030509491E0,7.670736830E0
3.455613750E-1,-2.763403473E0,4.377946014E0,7.308252411E0,8.956191342E0
3.556273750E-1,-3.400778046E0,4.748874664E0,6.415808258E0,8.676387353E0
3.656933750E-1,-2.713407440E0,4.678970032E0,5.544470215E0,7.745740149E0
3.757583750E-1,-2.416874084E0,4.909939728E0,5.319488068E0,7.631889790E0
3.858243750E-1,-1.249302063E0,5.497617645E0,5.019960938E0,7.548812041E0
3.958903750E-1,1.421444092E0,5.577850800E0,4.856201477E0,7.530977070E0
4.059563750E-1,6.081852722E-1,6.198310547E0,4.905299377E0,7.927856264E0
4.160213750E-1,-2.610271912E0,5.880371704E0,3.893553314E0,7.520109590E0
4.260873750E-1,-2.736908569E0,5.014721832E0,4.756359100E0,7.433778007E0
4.361533750E-1,-1.439556427E0,4.154011688E0,5.617368622E0,7.133229707E0
4.462193750E-1,2.402503967E-1,3.851191406E0,7.168143768E0,8.140742017E0
4.562843750E-1,1.885928192E0,4.231999512E0,8.195307770E0,9.414330271E0
4.663503750E-1,2.430346069E0,4.884792023E0,8.934470673E0,1.046864563E1
4.764163750E-1,2.116149445E0,6.055806885E0,9.058712311E0,1.110005199E1
4.864813750E-1,1.285077667E0,5.218897247E0,8.663234711E0,1.019509435E1
4.965473750E-1,-5.403762817E-2,3.607797546E0,8.770561523E0,9.483768905E0
5.066133750E-1,-6.918612671E-1,3.645369415E0,9.157955933E0,9.881070137E0
5.166793750E-1,-5.147795105E-1,3.769012299E0,9.600435791E0,1.032660733E1
5.267443750E-1,4.694238281E-1,3.645070038E0,1.001866608E1,1.067148370E1
5.368103750E-1,1.243613892E0,3.932472382E0,1.023272095E1,1.103265573E1
5.468763750E-1,1.770218811E0,4.538262634E0,9.822124786E0,1.096374196E1
5.569423750E-1,2.163451080E0,4.874313812E0,9.099427643E0,1.054699195E1
5.670073750E-1,2.401605835E0,5.093158722E0,8.555458832E0,1.024225816E1
5.770733750E-1,2.539319458E0,5.218298492E0,8.327782288E0,1.015040592E1
5.871393750E-1,2.610271912E0,4.927453308E0,8.304131470E0,1.000259541E1
5.972043750E-1,2.963986359E0,4.672832794E0,8.991202698E0,1.055757109E1
6.072703750E-1,3.734134827E0,4.495301971E0,9.332193604E0,1.101096454E1
6.173363750E-1,3.059637451E0,4.404141541E0,9.048683167E0,1.051838919E1
6.274023750E-1,1.215622101E0,4.006568298E0,9.446406097E0,1.033271091E1
6.374673750E-1,6.351292419E-1,3.001707916E0,1.045979874E1,1.090050591E1
6.475333750E-1,1.659149780E0,2.829416199E0,1.024080414E1,1.075325269E1
6.575993750E-1,2.478845215E0,3.898193665E0,9.358239441E0,1.043634193E1
6.676653750E-1,3.621568909E0,5.007836151E0,8.298592987E0,1.034702034E1
6.777303750E-1,3.621568909E0,6.120622101E0,7.633975067E0,1.043337681E1
6.877963750E-1,4.176315308E0,6.537505188E0,8.436456299E0,1.146099378E1
6.978623750E-1,5.668562164E0,5.499713287E0,9.784852295E0,1.257468798E1
7.079283750E-1,6.169720001E0,4.444407806E0,1.109867020E1,1.345357520E1
7.179933750E-1,6.119274902E0,4.380640411E0,1.184382065E1,1.403252020E1
7.280593750E-1,6.153852997E0,4.614454193E0,1.132170639E1,1.368737118E1
7.381253750E-1,5.682034149E0,4.649631042E0,1.021236328E1,1.257763669E1
7.481903750E-1,5.688021698E0,4.556225281E0,7.940836945E0,1.077820352E1
7.582563750E-1,5.512137451E0,4.191733246E0,6.656507721E0,9.605382966E0
7.683223750E-1,5.298381958E0,3.775299225E0,6.886429596E0,9.473576315E0
7.783883750E-1,5.486390991E0,3.712729340E0,7.347620544E0,9.893046696E0
7.884533750E-1,5.606890411E0,3.791914673E0,7.759264526E0,1.029669961E1
7.985193750E-1,5.425018616E0,3.664978638E0,7.647147675E0,1.006686460E1
8.085853750E-1,5.068460083E0,3.261268158E0,7.251969452E0,9.429539678E0
8.186513750E-1,4.301754456E0,2.881657562E0,6.731352081E0,8.492357891E0
8.287163750E-1,3.568579102E0,2.758314056E0,5.591921539E0,7.184193743E0
8.387823750E-1,3.646566925E0,2.550097046E0,4.559368744E0,6.370893864E0
8.488483750E-1,4.392615509E0,2.355950775E0,4.221970367E0,6.532274401E0
8.589133750E-1,6.322402496E0,1.309476929E0,4.741689606E0,8.010688077E0
8.689793750E-1,7.078330536E0,2.029779053E-1,6.525530090E0,9.629460326E0
8.790453750E-1,3.291205902E0,3.127296753E0,7.423662415E0,8.701883987E0
8.891113750E-1,1.985321503E0,3.112627258E0,6.630761261E0,7.589265104E0
8.991763750E-1,3.053350525E0,1.372196503E0,5.594466248E0,6.519503452E0
9.092423750E-1,3.927682343E0,1.009201355E0,4.466262360E0,6.032634203E0
9.193083750E-1,4.200265503E0,1.468146973E0,3.158132629E0,5.456325461E0
9.293743750E-1,4.065695343E0,1.004411316E0,1.392853546E0,4.413475016E0
9.394393750E-1,3.385809174E0,5.230123901E-1,1.872605896E-1,3.431080333E0
9.495053750E-1,4.170627136E0,2.379451904E0,3.037184143E-1,4.811254197E0
9.595713750E-1,4.277205505E0,1.212628326E0,3.382965088E-2,4.445908101E0
9.696373750E-1,4.505031738E0,3.562591553E-2,3.848497009E-1,4.521580416E0
9.797023750E-1,4.688849487E0,6.750961304E-2,9.824070740E-1,4.791136684E0
9.897683750E-1,4.593797150E0,-4.378395081E-1,1.890119476E0,4.986705057E0
9.998343750E-1,4.365072784E0,-9.960287476E-1,3.474125519E0,5.667052303E0
1.009899375E0,4.884043579E0,-7.009922791E-1,3.307372284E0,5.940032263E0
1.019965375E0,6.164331207E0,-9.683363342E-1,2.728675690E0,6.810457070E0
1.030031375E0,7.129973145E0,-1.218166809E0,1.960323486E0,7.494218811E0
1.040097375E0,7.489675140E0,-1.350940704E0,1.617087250E0,7.780439941E0
1.050162375E0,7.260501709E0,-1.366807709E0,1.396595764E0,7.518878115E0
1.060228375E0,7.169640656E0,-1.775757294E0,1.092428284E0,7.466623109E0
1.070294375E0,7.298073578E0,-2.587219849E0,6.126759338E-1,7.767300451E0
1.080360375E0,7.782466278E0,-3.595972137E0,1.351689148E-1,8.574151131E0
1.090425375E0,9.030271454E0,-4.694837036E0,-9.580078125E-3,1.017778901E1
1.100491375E0,1.058374100E1,-5.439837799E0,4.122427368E-1,1.190702956E1
1.110557375E0,1.173200317E1,-5.590873718E0,9.653425598E-1,1.303187069E1
1.120622375E0,1.287996597E1,-5.852080536E0,1.229243774E0,1.420040177E1
1.130688375E0,1.409633652E1,-6.471043396E0,1.082848206E0,1.554842970E1
1.140754375E0,1.518906418E1,-7.432494049E0,6.168672180E-1,1.692129320E1
1.150820375E0,1.588960739E1,-8.490194550E0,1.522334290E-1,1.801627602E1
1.160885375E0,1.645004196E1,-9.482780457E0,-1.321751404E-1,1.898800874E1
1.170951375E0,1.708247681E1,-1.031969009E1,-1.571731567E-2,1.995763675E1
1.181017125E0,1.771057068E1,-1.065409470E1,5.697152710E-1,2.067603983E1
1.191082125E0,1.830004486E1,-1.039977356E1,1.366208954E0,2.109297179E1
1.201148125E0,1.877246246E1,-9.704918518E0,2.251318359E0,2.125227575E1
1.211214125E0,1.933633987E1,-8.806636505E0,3.101250916E0,2.147250902E1
1.221280125E0,1.989931915E1,-7.822283478E0,3.805386658E0,2.171755026E1
1.231345125E0,2.013238449E1,-6.788084106E0,4.131109314E0,2.164386877E1
1.241411125E0,1.998104919E1,-6.104904785E0,3.920946350E0,2.125761063E1
1.251477125E0,1.928948730E1,-5.901777191E0,3.246898041E0,2.043178018E1
1.261543125E0,1.817774918E1,-5.821544037E0,2.184257813E0,1.921176520E1
1.271608125E0,1.677426773E1,-5.845643921E0,9.565109253E-1,1.778939358E1
1.281674125E0,1.539279053E1,-5.848338318E0,-1.182540894E-1,1.646678613E1
1.291740125E0,1.422656570E1,-5.748945007E0,-1.046623535E0,1.537988821E1
1.301805125E0,1.310015808E1,-5.344037018E0,-1.547032928E0,1.423257476E1
1.311871125E0,1.187570435E1,-4.664450226E0,-1.503024445E0,1.284712155E1
1.321937125E0,1.094508957E1,-4.011208649E0,-1.121617584E0,1.171079871E1
1.332003125E0,1.018961060E1,-3.503913574E0,-6.038442993E-1,1.079213614E1
1.342068125E0,9.543254700E0,-3.178190918E0,-1.811233521E-2,1.005857524E1
1.352134125E0,9.026379547E0,-2.857407990E0,4.165837097E-1,9.477016943E0
1.362200125E0,8.484506378E0,-2.483186188E0,7.809260559E-1,8.874846907E0
1.372266125E0,8.017477570E0,-2.111509094E0,1.056502991E0,8.357907382E0
1.382331125E0,7.633226624E0,-1.814376984E0,1.205143890E0,7.937914356E0
1.392397125E0,7.248077545E0,-1.572330322E0,1.087937622E0,7.496029550E0
1.402463125E0,7.151079254E0,-1.473835144E0,6.969506836E-1,7.334566435E0
1.412528125E0,7.139253845E0,-1.392404480E0,3.546125793E-1,7.282409339E0
1.422594125E0,7.107819214E0,-1.306932220E0,1.293310547E-1,7.228132008E0
1.432660125E0,7.287445679E0,-1.221310272E0,-8.382568359E-3,7.389082052E0
1.442726125E0,7.630681915E0,-1.023721161E0,-3.278182983E-2,7.699115933E0
1.452791125E0,7.950117645E0,-8.824150085E-1,1.568737793E-1,8.000477248E0
1.462857125E0,8.312364349E0,-7.897576904E-1,2.820135498E-1,8.354558632E0
1.472923125E0,8.732839966E0,-7.451504517E-1,3.375480652E-1,8.771070731E0
1.482989125E0,9.059909821E0,-7.249424744E-1,7.090754700E-1,9.116484825E0
1.493054125E0,9.739945679E0,-1.537303162E-1,1.204545135E0,9.815350417E0
1.503120125E0,8.863967285E0,-9.288185120E-1,1.203946381E0,8.993447990E0
1.513186125E0,9.265432434E0,-1.293011169E0,1.326242065E0,9.448758336E0
1.523251125E0,1.036414764E1,-2.869532776E-1,1.564995575E0,1.048556673E1
1.533317125E0,1.022478745E1,6.212081909E-2,1.740879822E0,1.037211646E1
1.543383125E0,1.052985306E1,-4.025129700E-1,1.707648926E0,1.067501227E1
1.553449125E0,1.119716537E1,-4.372407532E-1,1.781744843E0,1.134646670E1
1.563514125E0,1.137634277E1,-4.285588074E-1,1.920955353E0,1.154534136E1
1.573580125E0,1.155686737E1,-8.821156311E-1,2.341281281E0,1.182458919E1
1.583646125E0,1.194231583E1,-1.159189453E0,2.625240784E0,1.228228467E1
1.593711125E0,1.217792587E1,-1.277293854E0,2.649490356E0,1.252809472E1
1.603777125E0,1.252729935E1,-1.480271759E0,2.649340668E0,1.288966405E1
1.613843125E0,1.299732193E1,-1.709894257E0,2.418071594E0,1.333046083E1
1.623909125E0,1.343471237E1,-2.082319794E0,2.320324860E0,1.379171707E1
1.633974125E0,1.348949844E1,-2.559527435E0,2.502346344E0,1.395634215E1
1.644040125E0,1.379426468E1,-3.241359558E0,2.395917664E0,1.437110195E1
1.654106125E0,1.427341827E1,-4.087400208E0,2.070793762E0,1.499084709E1
1.664172125E0,1.456321564E1,-4.881199493E0,2.082319794E0,1.549998109E1
1.674237125E0,1.453911575E1,-5.479804688E0,2.332000580E0,1.571153630E1
1.684303125E0,1.458746521E1,-5.814658356E0,2.633473663E0,1.592292613E1
1.694369125E0,1.481469269E1,-5.811664581E0,2.929707642E0,1.618127781E1
1.704434125E0,1.512649429E1,-5.612578583E0,3.072061615E0,1.642405037E1
1.714500125E0,1.546464111E1,-5.203329620E0,2.757864990E0,1.654797822E1
1.724566125E0,1.563124466E1,-4.847968597E0,2.190694427E0,1.651174586E1
1.734632125E0,1.535117706E1,-4.818479919E0,1.358724518E0,1.614690429E1
1.744697125E0,1.471934097E1,-5.201084290E0,4.522096252E-1,1.561777097E1
1.754763125E0,1.416145111E1,-5.833519135E0,-1.580712891E-1,1.531671080E1
1.764829125E0,1.382629807E1,-6.486910400E0,-2.369572449E-1,1.527424870E1
1.774895125E0,1.356389374E1,-7.023694153E0,1.290316772E-1,1.527508239E1
1.784960125E0,1.352587280E1,-7.354356537E0,5.740562439E-1,1.540666530E1
1.795026125E0,1.379740814E1,-7.636370087E0,9.789642334E-1,1.580003135E1
1.805092125E0,1.412417862E1,-7.948770447E0,1.440005493E0,1.627110903E1
1.815157125E0,1.462324081E1,-8.059689789E0,2.063159637E0,1.682422061E1
1.825223125E0,1.483924164E1,-8.165370026E0,2.488574982E0,1.711926884E1
1.835289125E0,1.469284607E1,-8.335266724E0,2.466271362E0,1.707158140E1
1.845355125E0,1.411669418E1,-8.424930267E0,2.029329987E0,1.656438000E1
1.855420125E0,1.317425400E1,-8.292306061E0,1.728755035E0,1.566243602E1
1.865486125E0,1.221055801E1,-8.055348816E0,1.749561768E0,1.473252653E1
1.875552125E0,1.151046387E1,-7.681127014E0,1.853894806E0,1.396164090E1
1.885617125E0,1.103669907E1,-7.326514435E0,1.744622040E0,1.336152110E1
1.895683125E0,1.050246002E1,-6.940317535E0,1.467847595E0,1.267376229E1
1.905749125E0,9.923314362E0,-6.447392578E0,1.144519958E0,1.188911119E1
1.915815125E0,9.694889374E0,-5.948330383E0,9.210346985E-1,1.141147752E1
1.925880125E0,9.648934937E0,-5.614225159E0,7.393125916E-1,1.118785291E1
1.935946125E0,9.378297729E0,-5.433999939E0,7.415579224E-1,1.086419494E1
1.946012125E0,8.834328918E0,-5.207670593E0,9.223818970E-1,1.029640660E1
1.956078125E0,8.272696838E0,-5.056185608E0,1.002914429E0,9.747223360E0
1.966143125E0,7.752378845E0,-5.008285217E0,9.719288635E-1,9.280460349E0
1.976209125E0,7.219936066E0,-5.003794556E0,9.116043091E-1,8.831560404E0
1.986275125E0,6.768923950E0,-5.005740509E0,8.662486267E-1,8.463223746E0
1.996340125E0,6.437812500E0,-5.038971405E0,8.668473816E-1,8.221197418E0
2.006406125E0,6.183641052E0,-5.064268799E0,9.467811584E-1,8.048641481E0
2.016472125E0,5.975723419E0,-5.007836151E0,9.400451660E-1,7.853112645E0
2.026538125E0,5.838758240E0,-5.021607513E0,7.852670288E-1,7.741077710E0
2.036603125E0,5.699847107E0,-5.024152222E0,6.078858948E-1,7.622328243E0
2.046669125E0,5.399571533E0,-5.073549500E0,5.174739075E-1,7.427250939E0
2.056735125E0,4.990472260E0,-5.128784637E0,5.159770203E-1,7.174641281E0
2.066800125E0,4.729415131E0,-5.104984131E0,4.225712585E-1,6.971857494E0
2.076866125E0,4.494703217E0,-5.121749268E0,3.126997375E-1,6.821470053E0
2.086932125E0,4.100572815E0,-5.193300476E0,1.302291870E-1,6.618309972E0
2.096998125E0,3.713627472E0,-5.398823090E0,-1.281335449E-1,6.553986417E0
2.107063125E0,3.441643066E0,-5.714666290E0,-3.785627747E-1,6.681738365E0
2.117129125E0,3.280727692E0,-5.986950073E0,-5.716612244E-1,6.850805932E0
2.127195125E0,3.390748901E0,-6.229445801E0,-7.120692444E-1,7.128128485E0
2.137260125E0,3.637585602E0,-6.359225922E0,-7.104226685E-1,7.360467628E0
2.147326125E0,3.838916931E0,-6.324647827E0,-5.216651917E-1,7.416912290E0
2.157392125E0,4.153562622E0,-6.140231323E0,-2.243833923E-1,7.416526887E0
2.167458125E0,4.756508789E0,-5.942642212E0,8.098159790E-2,7.612222431E0
2.177523500E0,5.517526245E0,-5.905968475E0,1.927990723E-1,8.084598381E0
2.187589500E0,6.595584412E0,-6.240522766E0,4.221221924E-2,9.080068281E0
2.197655500E0,7.697143707E0,-6.735842743E0,-3.646417236E-1,1.023477222E1
2.207721500E0,8.538843384E0,-7.019951935E0,-7.957452393E-1,1.108263425E1
2.217786500E0,9.000483398E0,-7.041357422E0,-1.059197388E0,1.147655501E1
2.227852500E0,9.314230957E0,-7.079528046E0,-1.326840820E0,1.177434169E1
2.237918500E0,9.591604156E0,-7.320676575E0,-1.606010284E0,1.217252828E1
2.247983500E0,9.739346924E0,-7.539970551E0,-1.691632233E0,1.243252404E1
2.258049500E0,1.006671616E1,-7.686815186E0,-1.574276276E0,1.276339483E1
2.268115500E0,1.060544586E1,-7.815846863E0,-1.224004669E0,1.323106691E1
2.278181500E0,1.118324432E1,-7.745792542E0,-7.216493225E-1,1.362288638E1
2.288246500E0,1.194575867E1,-7.659122772E0,-2.303709412E-1,1.419212396E1
2.298312500E0,1.260139526E1,-7.511380005E0,2.139051819E-1,1.467180110E1
2.308378500E0,1.314536407E1,-7.427704010E0,4.528083801E-1,1.510550956E1
2.318443500E0,1.363903748E1,-7.394473114E0,6.155200195E-1,1.552676530E1
2.328509500E0,1.389320892E1,-7.237599335E0,7.940986633E-1,1.568549301E1
2.338575500E0,1.406639877E1,-7.115004272E0,8.373587036E-1,1.578569067E1
2.348641500E0,1.408181671E1,-7.052284698E0,7.508386230E-1,1.576692868E1
2.358706500E0,1.383138748E1,-6.825805664E0,6.110293579E-1,1.543607008E1
2.368772500E0,1.337618408E1,-6.462211761E0,3.342549133E-1,1.485914559E1
2.378838500E0,1.287562500E1,-6.044430542E0,1.871109009E-2,1.422382543E1
2.388903500E0,1.243793518E1,-5.573958893E0,-2.022294617E-1,1.363129290E1
2.398969500E0,1.191357559E1,-4.883444824E0,-3.109034729E-1,1.287936247E1
2.409035500E0,1.172466843E1,-4.267326050E0,-4.558021545E-1,1.248541857E1
2.419101500E0,1.157198593E1,-3.558999023E0,-5.584886169E-1,1.211978721E1
2.429166500E0,1.127051285E1,-2.880160675E0,-5.999523926E-1,1.164816416E1
2.439232500E0,1.088461533E1,-2.424508209E0,-5.786965942E-1,1.116637724E1
2.449298500E0,1.037148239E1,-2.115401001E0,-5.417234802E-1,1.059886941E1
2.459363500E0,9.929152222E0,-1.998344421E0,-5.771997070E-1,1.014468352E1
2.469429500E0,9.537865906E0,-1.956281891E0,-5.954617310E-1,9.754614269E0
2.479495500E0,9.134754181E0,-1.917213135E0,-5.593867493E-1,9.350526920E0
2.489561500E0,8.740474091E0,-1.915716248E0,-5.677693176E-1,8.965947695E0
2.499626500E0,8.455317078E0,-2.008672943E0,-5.216651917E-1,8.706278680E0
2.509692500E0,8.238118744E0,-2.070793762E0,-4.059558105E-1,8.504092389E0
2.519758500E0,8.335117035E0,-2.144889679E0,-2.631527710E-1,8.610689700E0
2.529823500E0,8.665929108E0,-2.265987854E0,5.089416504E-3,8.957290559E0
2.539889500E0,9.245374146E0,-2.447859650E0,3.658392334E-1,9.570935080E0
2.549955500E0,9.946516113E0,-2.552342377E0,9.455836487E-1,1.031221425E1
2.560021500E0,1.048255142E1,-2.596201172E0,1.697170715E0,1.093181290E1
2.570086500E0,1.071786209E1,-2.486030273E0,2.291434937E0,1.123848693E1
2.580152500E0,1.083551743E1,-2.244881744E0,2.629132690E0,1.137366566E1
2.590218500E0,1.085497696E1,-1.897903290E0,2.729573822E0,1.135267083E1
2.600284500E0,1.116617981E1,-1.488953705E0,2.518812103E0,1.154317847E1
2.610349500E0,1.184397034E1,-1.148112488E0,2.119592285E0,1.208678895E1
2.620415500E0,1.257564880E1,-8.948391724E-1,1.714983673E0,1.272355489E1
2.630481500E0,1.311243256E1,-7.138655090E-1,1.423689423E0,1.320879946E1
2.640546500E0,1.330762665E1,-5.685177612E-1,1.383423157E0,1.339141513E1
2.650612500E0,1.333831284E1,-4.547543335E-1,1.386416931E0,1.341788145E1
2.660678500E0,1.353395599E1,-4.141886902E-1,1.488804016E0,1.362189614E1
2.670744500E0,1.372690475E1,-3.959266663E-1,1.440155182E0,1.380792233E1
2.680809500E0,1.398362091E1,-5.194198608E-1,1.169068909E0,1.404201456E1
2.690875500E0,1.433194656E1,-7.268884277E-1,7.563771057E-1,1.437028759E1
2.700941500E0,1.482337463E1,-1.260528717E0,2.866539001E-1,1.487963503E1
2.711006500E0,1.506407410E1,-1.979932709E0,7.454498291E-2,1.519381515E1
2.721072500E0,1.506991196E1,-2.712209930E0,3.191363525E-1,1.531535756E1
2.731138500E0,1.519580017E1,-3.215463409E0,9.475296021E-1,1.556114906E1
2.741204500E0,1.546598831E1,-3.491190033E0,1.664388885E0,1.594225181E1
2.751269500E0,1.595726669E1,-3.526067505E0,2.181413727E0,1.648714888E1
2.761335500E0,1.640363846E1,-3.229085083E0,2.275268555E0,1.687255737E1
2.771401500E0,1.659000092E1,-2.950664062E0,2.082619171E0,1.697857036E1
2.781466500E0,1.636561752E1,-2.885848846E0,1.770518188E0,1.671216010E1
2.791532500E0,1.585128708E1,-3.093616791E0,1.420695648E0,1.621271547E1
2.801598500E0,1.523591675E1,-3.645219727E0,1.139879608E0,1.570732668E1
2.811664500E0,1.456830505E1,-4.263733521E0,1.111438751E0,1.522006018E1
2.821729500E0,1.398601593E1,-4.859344940E0,1.226100311E0,1.485682324E1
2.831795500E0,1.361329102E1,-5.492079163E0,1.365909576E0,1.474280620E1
2.841861500E0,1.331496140E1,-6.037095795E0,1.507664795E0,1.469720299E1
2.851926500E0,1.309686493E1,-6.464307404E0,1.546134796E0,1.468692187E1
2.861992500E0,1.316482361E1,-6.821315002E0,1.507515106E0,1.490354055E1
2.872058500E0,1.345492035E1,-7.145241394E0,1.450184326E0,1.530334574E1
2.882124500E0,1.366762802E1,-7.385940857E0,1.461261292E0,1.560421298E1
2.892189500E0,1.371403152E1,-7.496411133E0,1.587598572E0,1.570959292E1
2.902255500E0,1.351554428E1,-7.538473663E0,1.743274841E0,1.557361646E1
2.912321500E0,1.316123108E1,-7.496710510E0,1.899100800E0,1.526516478E1
2.922386500E0,1.273416916E1,-7.344327393E0,1.988015900E0,1.483409641E1
2.932452500E0,1.228210922E1,-7.194189606E0,2.049088898E0,1.438072795E1
2.942518500E0,1.185205353E1,-6.904841309E0,2.067650299E0,1.387166840E1
2.952584500E0,1.146435974E1,-6.627617798E0,2.046993256E0,1.339951653E1
2.962649500E0,1.098775085E1,-6.399941254E0,1.975591736E0,1.286828969E1
2.972715500E0,1.051383636E1,-6.227799225E0,1.789378967E0,1.235022734E1
2.982781500E0,1.005249573E1,-6.117628326E0,1.580563202E0,1.187334101E1
2.992846500E0,9.633666687E0,-6.010600891E0,1.371298370E0,1.143745234E1
3.002912500E0,9.320517883E0,-5.943390656E0,1.163530426E0,1.111529348E1
3.012978500E0,8.973240051E0,-5.936504974E0,1.075064392E0,1.081281146E1
3.023044500E0,8.545579376E0,-5.971831512E0,1.034798126E0,1.047666482E1
3.033109500E0,8.148455200E0,-6.033802643E0,1.043629761E0,1.019280430E1
3.043175500E0,7.765252075E0,-6.117478638E0,1.130299530E0,9.949887522E0
3.053241500E0,7.384743347E0,-6.176605682E0,1.230740662E0,9.705648594E0
3.063306500E0,7.034172363E0,-6.196514282E0,1.337169342E0,9.469128362E0
3.073372500E0,6.740483093E0,-6.172863464E0,1.426533508E0,9.250586659E0
3.083438500E0,6.488107910E0,-6.128555603E0,1.438658295E0,9.040159054E0
3.093504500E0,6.256689148E0,-6.058950348E0,1.425036621E0,8.825404681E0
3.103569500E0,5.986800385E0,-5.976322174E0,1.362317047E0,8.568203622E0
3.113635500E0,5.632786560E0,-5.902525635E0,1.354533234E0,8.270601767E0
3.123701500E0,5.370531921E0,-5.841003571E0,1.368454285E0,8.051869532E0
3.133766500E0,5.119054871E0,-5.866001587E0,1.377734985E0,7.906506882E0
3.143832500E0,4.860093384E0,-5.951324158E0,1.308578796E0,7.794302111E0
3.153898500E0,4.804409180E0,-6.169270935E0,1.144519958E0,7.902669003E0
3.163964500E0,4.705464935E0,-6.352040863E0,9.716294861E-1,7.964539362E0
3.174029500E0,4.603676605E0,-6.495891724E0,8.285270691E-1,8.004805099E0
3.184095750E0,4.460424500E0,-6.577322388E0,7.604187012E-1,7.983407362E0
3.194161750E0,4.396208038E0,-6.626719666E0,7.653584290E-1,7.989107094E0
3.204226750E0,4.547992401E0,-6.632557526E0,7.725434875E-1,8.079101290E0
3.214292750E0,4.934338989E0,-6.573131104E0,7.696994019E-1,8.255070620E0
3.224358750E0,5.503605194E0,-6.627468109E0,7.934999084E-1,8.651164417E0
3.234424750E0,6.225104828E0,-6.852899323E0,5.896238708E-1,9.276950768E0
3.244489750E0,7.105723572E0,-7.229965210E0,3.125500488E-1,1.014206054E1
3.254555750E0,7.723488922E0,-7.583529968E0,1.362167358E-1,1.082500637E1
3.264621750E0,7.890840912E0,-7.730075226E0,-7.244934082E-2,1.104647827E1
3.274686750E0,7.806266785E0,-7.767497406E0,-3.996688843E-1,1.101959855E1
3.284752750E0,7.901618500E0,-7.716752930E0,-7.997868347E-1,1.107355000E1
3.294818750E0,8.076454926E0,-7.732320557E0,-1.285676422E0,1.125481538E1
3.304884750E0,8.263266449E0,-7.696994019E0,-1.669777679E0,1.141549153E1
3.314949750E0,8.611891479E0,-7.647447052E0,-1.735041962E0,1.164725255E1
3.325015750E0,9.209149475E0,-7.593858490E0,-1.518741760E0,1.203252664E1
3.335081750E0,9.948462067E0,-7.496560822E0,-1.141825562E0,1.250896028E1
3.345146750E0,1.063433578E1,-7.399263153E0,-6.746470642E-1,1.297279235E1
3.355212750E0,1.132080826E1,-7.265890503E0,-3.167413330E-1,1.345563783E1
3.365278750E0,1.188318878E1,-7.250173187E0,-1.456471252E-1,1.392107754E1
3.375344750E0,1.216220856E1,-7.286098480E0,6.331832886E-2,1.417781920E1
3.385409750E0,1.216939362E1,-7.278314667E0,3.008743286E-1,1.418303672E1
3.395475750E0,1.195728470E1,-7.164401550E0,5.319937134E-1,1.394949190E1
3.405541750E0,1.166838547E1,-6.910828857E0,6.972500610E-1,1.357928321E1
3.415606750E0,1.132993927E1,-6.562353516E0,7.514373779E-1,1.311474993E1
3.425672750E0,1.095990875E1,-6.101162567E0,7.707472229E-1,1.256733209E1
3.435738750E0,1.063912582E1,-5.525759125E0,6.756948853E-1,1.200756327E1
3.445804750E0,1.041174866E1,-4.931195526E0,5.300477600E-1,1.153265581E1
3.455869750E0,1.018856277E1,-4.371808777E0,3.710783386E-1,1.109311600E1
3.465935750E0,1.002061203E1,-3.853885803E0,2.508782959E-1,1.073908940E1
3.476001750E0,9.794282684E0,-3.405717773E0,2.465373230E-1,1.037244752E1
3.486066750E0,9.637259216E0,-3.106639709E0,2.888992310E-1,1.012973041E1
3.496132750E0,9.500743103E0,-2.906056824E0,3.667373657E-1,9.942021025E0
3.506198750E0,9.365125122E0,-2.786006470E0,4.484674072E-1,9.781028761E0
3.516264750E0,9.227561188E0,-2.651885376E0,5.516029358E-1,9.616893850E0
3.526329750E0,9.062903595E0,-2.563868408E0,5.680686951E-1,9.435695249E0
3.536395750E0,8.884025574E0,-2.586621094E0,5.575904846E-1,9.269704754E0
3.546461750E0,8.775351563E0,-2.667453003E0,4.155358887E-1,9.181218364E0
3.556526750E0,8.810528412E0,-2.818039856E0,1.896556091E-1,9.252174273E0
3.566592750E0,8.982820129E0,-2.943179626E0,1.035845947E-1,9.453258357E0
3.576658750E0,9.268126831E0,-3.040177917E0,1.534309387E-1,9.755224128E0
3.586724750E0,9.597891083E0,-3.036435699E0,4.068539429E-1,1.007496824E1
3.596789750E0,9.858349457E0,-2.869233398E0,7.430548096E-1,1.029425494E1
3.606855750E0,1.007195526E1,-2.603086853E0,1.049916687E0,1.045574813E1
3.616921750E0,1.029648834E1,-2.286195831E0,1.282832336E0,1.062497164E1
3.626986750E0,1.061622345E1,-2.009720764E0,1.419947205E0,1.089767993E1
3.637052750E0,1.089464447E1,-1.680704956E0,1.411414948E0,1.111351157E1
3.647118750E0,1.143517044E1,-1.574276276E0,1.158590698E0,1.160102587E1
3.657184750E0,1.191507248E1,-1.634900208E0,9.077124023E-1,1.206092006E1
3.667249750E0,1.227043350E1,-1.766925659E0,7.937992859E-1,1.242238632E1
3.677315750E0,1.242176880E1,-1.740131378E0,9.273216248E-1,1.257729393E1
3.687381750E0,1.280497192E1,-1.748963013E0,1.212029572E0,1.298056984E1
3.697446750E0,1.322933945E1,-1.738035736E0,1.540596313E0,1.343166510E1
3.707512750E0,1.343321548E1,-1.626966705E0,1.636097717E0,1.362993451E1
3.717578750E0,1.352437592E1,-1.542991333E0,1.353186035E0,1.367920607E1
3.727644750E0,1.350027603E1,-1.625020752E0,9.413923645E-1,1.363027384E1
3.737709750E0,1.342722794E1,-1.857637024E0,5.198689270E-1,1.356508493E1
3.747775750E0,1.384336258E1,-2.502346344E0,8.472381592E-2,1.406796371E1
3.757841750E0,1.421608749E1,-3.347638550E0,-3.457809448E-2,1.460496570E1
3.767906750E0,1.418734726E1,-3.852089539E0,3.068618774E-1,1.470420281E1
3.777972750E0,1.430964294E1,-4.189936981E0,8.845106506E-1,1.493666001E1
3.788038750E0,1.486289246E1,-4.353546753E0,1.476978607E0,1.555764787E1
3.798104750E0,1.553529419E1,-4.242178345E0,1.819466400E0,1.620653882E1
3.808169750E0,1.598510880E1,-3.834276581E0,1.829794922E0,1.654005833E1
3.818235750E0,1.615530487E1,-3.370091858E0,1.539249115E0,1.657470007E1
3.828301750E0,1.599977829E1,-3.155138855E0,1.301094360E0,1.635972656E1
3.838366750E0,1.550580551E1,-3.312312012E0,1.267115021E0,1.590619363E1
3.848432750E0,1.474733276E1,-3.764371948E0,1.375190277E0,1.528219448E1
3.858498750E0,1.402268967E1,-4.335883484E0,1.625170441E0,1.476742666E1
3.868564750E0,1.345477066E1,-4.851261749E0,1.966460724E0,1.443719370E1
3.878629750E0,1.313443680E1,-5.382207642E0,2.219584351E0,1.436691142E1
3.888695750E0,1.313772995E1,-5.861959991E0,2.362237701E0,1.457884392E1
3.898761750E0,1.336211334E1,-6.119723969E0,2.574496307E0,1.492062752E1
3.908826750E0,1.375639343E1,-6.287375336E0,2.604284363E0,1.534769513E1
3.918892750E0,1.396760422E1,-6.495143280E0,2.451003113E0,1.559770079E1
3.928958750E0,1.384875137E1,-6.692433014E0,2.196232910E0,1.553705291E1
3.939024750E0,1.353709946E1,-6.866071930E0,1.950444031E0,1.530360210E1
3.949089750E0,1.306782532E1,-6.960974579E0,1.814826050E0,1.491699766E1
3.959155750E0,1.246832199E1,-6.898554382E0,1.794618073E0,1.436209455E1
3.969221750E0,1.193303513E1,-6.763235779E0,1.778002625E0,1.383112356E1
3.979286750E0,1.151091293E1,-6.526577911E0,1.791324921E0,1.335313374E1
3.989352750E0,1.121497833E1,-6.159840546E0,1.855691071E0,1.292915171E1
3.999418750E0,1.099104401E1,-5.878276062E0,1.916913757E0,1.261077857E1
4.009483750E0,1.074480606E1,-5.582042084E0,1.977986755E0,1.226876044E1
4.019549750E0,1.053329590E1,-5.305716705E0,1.963916016E0,1.195650109E1
4.029615750E0,1.026864624E1,-5.141657867E0,1.833986206E0,1.162949898E1
4.039681750E0,9.894424438E0,-5.148543549E0,1.663640442E0,1.127718206E1
4.049746750E0,9.437873840E0,-5.239703979E0,1.577419739E0,1.090945523E1
4.059812750E0,8.984766083E0,-5.341043243E0,1.512454834E0,1.056126338E1
4.069878750E0,8.567882996E0,-5.445525970E0,1.467697906E0,1.025750990E1
4.079943750E0,8.209378510E0,-5.564229126E0,1.473535767E0,1.002625797E1
4.090009750E0,7.879314880E0,-5.661676483E0,1.477277985E0,9.814302514E0
4.100075750E0,7.543563080E0,-5.733826447E0,1.458417206E0,9.586922885E0
4.110141750E0,7.180268555E0,-5.737568665E0,1.499132538E0,9.312537198E0
4.120206750E0,6.840325470E0,-5.760920105E0,1.513053589E0,9.070147968E0
4.130272750E0,6.570586395E0,-5.879323883E0,1.522783356E0,8.947509377E0
4.140338750E0,6.188281403E0,-5.926475830E0,1.567839661E0,8.710686752E0
4.150403750E0,5.887556763E0,-5.990991669E0,1.523980865E0,8.536850912E0
4.160469750E0,5.575605469E0,-6.035149841E0,1.513203278E0,8.354651047E0
4.170535750E0,5.366041260E0,-6.051914978E0,1.399140472E0,8.208390084E0
4.180601792E0,5.268743591E0,-6.080655212E0,1.266815643E0,8.144866403E0
4.190666792E0,5.223687286E0,-6.105653229E0,1.071771240E0,8.106454454E0
4.200732792E0,5.197791138E0,-6.184988251E0,7.572752380E-1,8.114467213E0
4.210798792E0,5.176535339E0,-6.246809692E0,4.724176025E-1,8.126643086E0
4.220863792E0,5.166655884E0,-6.302194519E0,2.421963501E-1,8.152953321E0
4.230929792E0,5.146298218E0,-6.320157166E0,1.040336609E-1,8.151048702E0
4.240995792E0,5.086572418E0,-6.277795258E0,1.420545959E-1,8.081095951E0
4.251061792E0,5.102589111E0,-6.281088409E0,2.683918762E-1,8.096945192E0
4.261126792E0,5.285957794E0,-6.317911835E0,4.059558105E-1,8.247554781E0
4.271192792E0,5.635780334E0,-6.316115570E0,4.477189636E-1,8.476779350E0
4.281258792E0,6.379433899E0,-6.640491028E0,2.426454163E-1,9.211524019E0
4.291323792E0,7.103029175E0,-7.099885712E0,-4.370910645E-2,1.004307279E1
4.301389792E0,7.543862457E0,-7.414980469E0,-3.863465881E-1,1.058494496E1
4.311455792E0,7.639663239E0,-7.432943115E0,-6.884184265E-1,1.068115245E1
4.321520792E0,7.533384247E0,-7.273374939E0,-9.148974609E-1,1.051146510E1
4.331586792E0,7.661068726E0,-7.150480499E0,-1.048270111E0,1.053186667E1
4.341652792E0,7.866291962E0,-7.022945709E0,-1.081351318E0,1.060045453E1
4.351718792E0,8.073760529E0,-6.761888580E0,-1.008752289E0,1.057952397E1
4.361783792E0,8.427474976E0,-6.585255890E0,-9.147477722E-1,1.073427655E1
4.371849792E0,8.860225067E0,-6.438710632E0,-7.310797119E-1,1.097702420E1
4.381915792E0,9.392967224E0,-6.392307129E0,-4.614903259E-1,1.137112119E1
4.391980792E0,9.892927551E0,-6.463858337E0,-2.730322266E-1,1.182057641E1
4.402046792E0,1.023331970E1,-6.527176666E0,-7.694000244E-2,1.213798942E1
4.412112792E0,1.044767395E1,-6.622827759E0,1.431024170E-1,1.237078077E1
4.422178792E0,1.064765808E1,-6.651717682E0,2.894979858E-1,1.255793693E1
4.432243792E0,1.091215805E1,-6.622977448E0,2.808160400E-1,1.276784560E1
4.442309792E0,1.111992599E1,-6.542744293E0,1.068777466E-1,1.290239047E1
4.452375792E0,1.121333176E1,-6.401887207E0,-1.264869690E-1,1.291274440E1
4.462440792E0,1.118578903E1,-6.198759613E0,-3.611988831E-1,1.279362973E1
4.472506792E0,1.108444977E1,-5.950725403E0,-5.269042969E-1,1.259181431E1
4.482572792E0,1.100885696E1,-5.619464264E0,-6.122268677E-1,1.237530331E1
4.492638792E0,1.093056976E1,-5.227579193E0,-6.288423157E-1,1.213261646E1
4.502703792E0,1.080303497E1,-4.772226105E0,-5.510041809E-1,1.182299929E1
4.512769792E0,1.062580353E1,-4.308939514E0,-3.924838257E-1,1.147295533E1
4.522835792E0,1.041818527E1,-3.837420044E0,-2.095642090E-1,1.110442678E1
4.532900792E0,1.015967285E1,-3.433709564E0,-5.733078003E-2,1.072439279E1
4.542966792E0,9.919272766E0,-3.121758270E0,6.616241455E-2,1.039912133E1
4.553032792E0,9.734706573E0,-2.850372620E0,1.865121460E-1,1.014514282E1
4.563097792E0,9.659862213E0,-2.639161835E0,2.462379456E-1,1.001692300E1
4.573163792E0,9.635013885E0,-2.452799377E0,2.429447937E-1,9.945287303E0
4.583229792E0,9.458830261E0,-2.252665558E0,2.333647156E-1,9.726172480E0
4.593295792E0,9.219477997E0,-2.242187347E0,1.648072815E-1,9.489643833E0
4.603360792E0,9.015601959E0,-2.379152527E0,6.556365967E-2,9.324470174E0
4.613426792E0,8.759634247E0,-2.496059418E0,-3.577560425E-2,9.108390892E0
4.623492792E0,8.760532379E0,-2.710563354E0,-1.913021851E-1,9.172277677E0
4.633557792E0,9.039252777E0,-2.894231415E0,-1.866618347E-1,9.493129563E0
4.643623792E0,9.267827454E0,-2.977757721E0,-4.625381470E-2,9.734567590E0
4.653689792E0,9.561666412E0,-3.048410797E0,1.004411316E-1,1.003635200E1
4.663755792E0,9.877958679E0,-3.101250916E0,2.761756897E-1,1.035703133E1
4.673820792E0,9.977202301E0,-2.949316864E0,5.754034424E-1,1.041989083E1
4.683886792E0,1.019350250E1,-2.757266235E0,8.575666809E-1,1.059459442E1
4.693952792E0,1.056847275E1,-2.515818329E0,1.041534119E0,1.091360396E1
4.704017792E0,1.097008759E1,-2.218686218E0,1.105900269E0,1.124670643E1
4.714083792E0,1.147902924E1,-2.024539948E0,9.093589783E-1,1.169161272E1
4.724149792E0,1.193183762E1,-2.030826874E0,6.209088135E-1,1.211934546E1
4.734215792E0,1.216924393E1,-2.034269714E0,4.914280701E-1,1.234788454E1
4.744280792E0,1.238075409E1,-2.045496368E0,4.402345276E-1,1.255631051E1
4.754346792E0,1.271051834E1,-2.116149445E0,5.472619629E-1,1.289708729E1
4.764412792E0,1.290616150E1,-2.062261505E0,7.394622803E-1,1.309078804E1
4.774477792E0,1.300869827E1,-2.119143219E0,8.569679260E-1,1.320800487E1
4.784543792E0,1.297486862E1,-2.174378357E0,8.205935669E-1,1.318136984E1
4.794609792E0,1.315808762E1,-2.424508209E0,5.674699402E-1,1.339162171E1
4.804674792E0,1.366568207E1,-2.987936554E0,1.910028076E-1,1.398982178E1
4.814740792E0,1.414004562E1,-3.665727081E0,3.053649902E-2,1.460751100E1
4.824806792E0,1.423120605E1,-4.303401031E0,2.345622253E-1,1.486948236E1
4.834872792E0,1.427551392E1,-4.800217896E0,7.557783508E-1,1.507990684E1
4.844937792E0,1.439541458E1,-4.995861053E0,1.492396545E0,1.531057922E1
4.855003792E0,1.456665848E1,-4.785398712E0,2.179018707E0,1.548662980E1
4.865069792E0,1.477203140E1,-4.257147217E0,2.379451904E0,1.555628508E1
4.875134792E0,1.479448471E1,-3.610042877E0,2.235301666E0,1.539174327E1
4.885200792E0,1.472712479E1,-3.101400604E0,2.105222168E0,1.519667235E1
4.895266792E0,1.453372696E1,-2.859054565E0,2.005529480E0,1.494742656E1
4.905332792E0,1.437086563E1,-3.002606049E0,1.847458191E0,1.479697685E1
4.915397792E0,1.401355865E1,-3.454815674E0,1.613195343E0,1.452301541E1
4.925463792E0,1.342872482E1,-4.130959625E0,1.398092651E0,1.411914094E1
4.935529792E0,1.297097672E1,-4.938530273E0,1.275497589E0,1.393779797E1
4.945594792E0,1.261292130E1,-5.864804077E0,1.266067200E0,1.396727019E1
4.955660792E0,1.247296234E1,-6.685397644E0,1.410816193E0,1.422180486E1
4.965726792E0,1.286559586E1,-7.224726105E0,1.575922852E0,1.483926403E1
4.975791792E0,1.322005875E1,-7.472610626E0,1.860780487E0,1.529942374E1
4.985857792E0,1.318218750E1,-7.470215607E0,2.139051819E0,1.530195187E1
4.995923792E0,1.292172913E1,-7.425308990E0,2.233355713E0,1.506964415E1
5.005989792E0,1.252206024E1,-7.357500000E0,2.237546997E0,1.469494524E1
5.016054792E0,1.199904785E1,-7.185058594E0,2.218536530E0,1.416065396E1
5.026120792E0,1.141496246E1,-6.984775085E0,2.173180847E0,1.355769767E1
5.036186792E0,1.094823303E1,-6.847061462E0,2.071242828E0,1.307807723E1
5.046251792E0,1.040965302E1,-6.627318420E0,1.976489868E0,1.249754926E1
5.056317792E0,9.859546967E0,-6.344107361E0,1.869163055E0,1.187232644E1
5.066383792E0,9.405391388E0,-6.136040039E0,1.692380676E0,1.135678330E1
5.076449792E0,8.949140167E0,-5.923781433E0,1.473535767E0,1.083280222E1
5.086514792E0,8.507259064E0,-5.638923798E0,1.240919495E0,1.028157573E1
5.096580792E0,8.224048004E0,-5.339845734E0,9.337582397E-1,9.849914847E0
5.106646792E0,7.972570953E0,-5.043312378E0,6.191125488E-1,9.454109567E0
5.116711792E0,7.738457794E0,-4.849016418E0,3.832031250E-1,9.140215200E0
5.126777792E0,7.515421600E0,-4.760550385E0,2.845582581E-1,8.900863733E0
5.136843792E0,7.239545288E0,-4.767286377E0,2.409988403E-1,8.671569398E0
5.146908792E0,6.940766602E0,-4.875810699E0,2.959346008E-1,8.487364036E0
5.156974792E0,6.619684296E0,-5.092110901E0,4.388873291E-1,8.363159432E0
5.167040792E0,6.357429657E0,-5.284610596E0,6.189628601E-1,8.290183111E0
5.177107167E0,6.210435333E0,-5.537734222E0,7.884104919E-1,8.358085813E0
5.187172167E0,6.077212372E0,-5.768105164E0,1.021026764E0,8.440737115E0
5.197238167E0,5.833070068E0,-5.798941040E0,1.213526459E0,8.314148788E0
5.207304167E0,5.643414459E0,-5.797444153E0,1.302441559E0,8.194805640E0
5.217369167E0,5.492228851E0,-5.737119598E0,1.238374786E0,8.038201985E0
5.227435167E0,5.358556824E0,-5.639372864E0,1.141077118E0,7.862487807E0
5.237501167E0,5.327870636E0,-5.561983795E0,1.090482330E0,7.778883015E0
5.247566167E0,5.423372040E0,-5.592819672E0,1.090632019E0,7.866516024E0
5.257632167E0,5.608237610E0,-5.794749756E0,1.193019104E0,8.151978190E0
5.267698167E0,5.864205322E0,-6.120173035E0,1.299148407E0,8.575150647E0
5.277764167E0,6.043981476E0,-6.494245148E0,1.386716309E0,8.979304775E0
5.287829167E0,5.968987427E0,-6.778054962E0,1.540147247E0,9.162035446E0
5.297895167E0,5.881718903E0,-6.995402985E0,1.657503204E0,9.288573466E0
5.307961167E0,5.880072327E0,-7.075935516E0,1.721120911E0,9.359827519E0
5.318026167E0,6.019731903E0,-7.006330261E0,1.699416046E0,9.392222890E0
5.328092167E0,6.430328064E0,-6.889423370E0,1.536854095E0,9.548570254E0
5.338158167E0,7.293133850E0,-6.990912323E0,1.056802368E0,1.015773044E1
5.348224167E0,8.255931702E0,-7.269632721E0,5.215155029E-1,1.101271749E1
5.358289167E0,8.991053009E0,-7.460485840E0,1.001417542E-1,1.168366002E1
5.368355167E0,9.203311615E0,-7.458689575E0,-2.627037048E-1,1.184913533E1
5.378421167E0,8.968599701E0,-7.354206848E0,-6.264472961E-1,1.161518726E1
5.388486167E0,8.756790161E0,-7.380552063E0,-9.138496399E-1,1.148864848E1
5.398552167E0,8.644673309E0,-7.411537628E0,-1.000220032E0,1.143073518E1
5.408618167E0,8.677904205E0,-7.321874084E0,-1.011895752E0,1.139911376E1
5.418683167E0,8.824449463E0,-7.216493225E0,-8.174501038E-1,1.142877541E1
5.428749167E0,9.077573090E0,-7.046596527E0,-3.990701294E-1,1.149852655E1
5.438815167E0,9.416318665E0,-6.898255005E0,-3.712280273E-2,1.167280418E1
5.448881167E0,9.701475677E0,-6.737040253E0,2.574645996E-1,1.181408607E1
5.458946167E0,9.921368408E0,-6.612349548E0,4.676275635E-1,1.193211604E1
5.469012167E0,1.008063721E1,-6.564748535E0,6.149212646E-1,1.204546794E1
5.479078167E0,1.014395554E1,-6.525230713E0,6.927593994E-1,1.208132382E1
5.489143167E0,1.019260437E1,-6.451134796E0,7.352709961E-1,1.208498852E1
5.499209167E0,1.015533188E1,-6.300847321E0,6.746470642E-1,1.197023772E1
5.509275167E0,1.007958939E1,-6.112089844E0,5.523513794E-1,1.180088372E1
5.519340167E0,9.860594788E0,-5.819897461E0,4.294569397E-1,1.145805260E1
5.529406167E0,9.669142914E0,-5.484145660E0,2.360591125E-1,1.111862861E1
5.539472167E0,9.535470886E0,-5.127437439E0,2.439926147E-2,1.082665299E1
5.549538167E0,9.462422791E0,-4.737797699E0,-1.806742859E-1,1.058379966E1
5.559603167E0,9.371861115E0,-4.353397064E0,-2.639012146E-1,1.033699621E1
5.569669167E0,9.250014496E0,-3.936064911E0,-2.625540161E-1,1.005605836E1
5.579735167E0,9.031468964E0,-3.498524780E0,-2.185455322E-1,9.687872286E0
5.589800167E0,8.752598877E0,-3.144510956E0,-1.724414062E-1,9.301917667E0
5.599866167E0,8.493188324E0,-2.867437134E0,-5.673202515E-2,8.964355088E0
5.609932167E0,8.224197693E0,-2.681673431E0,7.798782349E-2,8.650715704E0
5.619998167E0,8.063132629E0,-2.566712494E0,1.475930786E-1,8.463090720E0
5.630063167E0,8.029153290E0,-2.516267395E0,1.969903564E-1,8.416514086E0
5.640129167E0,8.006699982E0,-2.468816071E0,2.360591125E-1,8.382005804E0
5.650195167E0,8.112230530E0,-2.445165253E0,2.665956116E-1,8.476921051E0
5.660260167E0,8.187823334E0,-2.501148834E0,1.164578247E-1,8.562111822E0
5.670326167E0,8.269703064E0,-2.642305298E0,-8.337661743E-2,8.681976602E0
5.680392167E0,8.352331238E0,-2.760110321E0,-1.528321838E-1,8.797897690E0
5.690457167E0,8.503666534E0,-2.820135498E0,-1.050814819E-1,8.959718236E0
5.700523167E0,8.696315918E0,-2.810705109E0,5.194198608E-2,9.139402153E0
5.710589167E0,8.941506042E0,-2.740351410E0,1.969903564E-1,9.354082604E0
5.720655167E0,9.308542786E0,-2.567610626E0,3.929328918E-1,9.664160045E0
5.730720167E0,9.644294586E0,-2.348915405E0,6.483018494E-1,9.947367337E0
5.740786167E0,9.972112885E0,-2.119891663E0,8.719367981E-1,1.023216741E1
5.750852167E0,1.025771896E1,-1.907483368E0,1.058448944E0,1.048711616E1
5.760917167E0,1.063613205E1,-1.698068848E0,1.073866882E0,1.082422897E1
5.770983167E0,1.120943985E1,-1.665436707E0,7.574249268E-1,1.135776887E1
5.781049167E0,1.181882263E1,-1.737886047E0,4.022135925E-1,1.195268138E1
5.791114167E0,1.229423401E1,-1.800904999E0,1.231938171E-1,1.242604625E1
5.801180167E0,1.258418106E1,-1.873354340E0,1.164578247E-1,1.272338917E1
5.811246167E0,1.266351608E1,-1.912872162E0,3.206332397E-1,1.281118750E1
5.821312167E0,1.282802399E1,-1.991159363E0,5.340893555E-1,1.299261969E1
5.831377167E0,1.302770874E1,-2.067799988E0,7.033872986E-1,1.320953237E1
5.841443167E0,1.326242065E1,-2.016756134E0,8.780740356E-1,1.344359033E1
5.851509167E0,1.353036346E1,-1.978435822E0,9.045689392E-1,1.370413035E1
5.861574167E0,1.414363815E1,-2.154020691E0,6.360273743E-1,1.432085319E1
5.871640167E0,1.497680557E1,-2.819387054E0,-5.942642212E-2,1.523998622E1
5.881706167E0,1.516182083E1,-3.563789062E0,-5.049000549E-1,1.558320658E1
5.891771167E0,1.470541992E1,-4.150269470E0,-5.477110291E-1,1.528967296E1
5.901837167E0,1.451441711E1,-4.748575287E0,-2.781216431E-1,1.527398517E1
5.911903167E0,1.446621735E1,-4.984634399E0,3.459306335E-1,1.530482579E1
5.921969167E0,1.461710358E1,-4.719385986E0,1.017733612E0,1.539376831E1
5.932034167E0,1.494641876E1,-4.221221924E0,1.263672180E0,1.558239442E1
5.942100167E0,1.506691818E1,-3.739523621E0,1.136287079E0,1.556557769E1
5.952166167E0,1.493384491E1,-3.596870270E0,9.276210022E-1,1.538888171E1
5.962231167E0,1.459360245E1,-3.817810822E0,7.568261719E-1,1.510369815E1
5.972297167E0,1.417567154E1,-4.226910095E0,7.262896729E-1,1.481026432E1
5.982363167E0,1.379680939E1,-4.689747620E0,8.364605713E-1,1.459607304E1
5.992428167E0,1.353694977E1,-5.132227478E0,9.883946228E-1,1.451088184E1
6.002494167E0,1.340866653E1,-5.583838348E0,1.159788208E0,1.457109116E1
6.012560167E0,1.338935669E1,-6.035598907E0,1.269210663E0,1.474158141E1
6.022626167E0,1.338800949E1,-6.417305145E0,1.274749146E0,1.490119421E1
6.032691167E0,1.325688217E1,-6.704408112E0,1.113684082E0,1.489745969E1
6.042757167E0,1.288535477E1,-6.993307343E0,9.256750488E-1,1.468998262E1
6.052823167E0,1.229767685E1,-7.160359955E0,9.544152832E-1,1.426234620E1
6.062888167E0,1.164054337E1,-7.195387115E0,1.137035522E0,1.373203173E1
6.072954167E0,1.105825424E1,-7.070097656E0,1.402433624E0,1.319992757E1
6.083020167E0,1.052925430E1,-6.781647491E0,1.741628265E0,1.264473044E1
6.093086167E0,1.008482849E1,-6.434669037E0,2.012564850E0,1.213091705E1
6.103151167E0,9.698631592E0,-6.049070892E0,2.205962677E0,1.164134806E1
6.113217167E0,9.310788116E0,-5.679489441E0,2.184407501E0,1.112290483E1
6.123283167E0,8.944050751E0,-5.389542389E0,1.933529205E0,1.061987505E1
6.133348167E0,8.578061829E0,-5.190157013E0,1.626817017E0,1.015713582E1
6.143414167E0,8.404422913E0,-5.035827942E0,1.407523041E0,9.898232603E0
6.153480167E0,8.295150146E0,-4.892276459E0,1.291214905E0,9.716538521E0
6.163545167E0,8.148305511E0,-4.777764587E0,1.320254517E0,9.537556770E0
6.173611167E0,7.937543793E0,-4.753515015E0,1.287472687E0,9.341204011E0
6.183676000E0,7.818690948E0,-4.879552917E0,1.243314514E0,9.299881494E0
6.193742000E0,7.579488373E0,-5.013224945E0,1.247505798E0,9.172640790E0
6.203807000E0,7.289541321E0,-5.157375183E0,1.245559845E0,9.015949799E0
6.213873000E0,7.028484192E0,-5.284610596E0,1.292861481E0,8.888092596E0
6.223939000E0,6.722071381E0,-5.392386475E0,1.417103119E0,8.733398925E0
6.234004000E0,6.436764679E0,-5.450016632E0,1.588496704E0,8.582420556E0
6.244070000E0,6.141578522E0,-5.488336945E0,1.674867096E0,8.405118021E0
6.254136000E0,5.910159760E0,-5.483546906E0,1.671873322E0,8.233737636E0
6.264201000E0,5.732928314E0,-5.517526245E0,1.633852386E0,8.122748091E0
6.274267000E0,5.566923523E0,-5.623206482E0,1.519340515E0,8.057262826E0
6.284333000E0,5.351222076E0,-5.719606018E0,1.440005493E0,7.963861283E0
6.294399000E0,5.128485260E0,-5.735922089E0,1.398092651E0,7.820283008E0
6.304464000E0,5.068609772E0,-5.846392365E0,1.340462494E0,7.852894269E0
6.314530000E0,5.001399536E0,-5.916147308E0,1.208437042E0,7.840606888E0
6.324596000E0,5.158872070E0,-6.144422607E0,9.476792908E-1,8.078736674E0
6.334661000E0,5.319637756E0,-6.408323822E0,6.092330933E-1,8.350827805E0
6.344727000E0,5.418432312E0,-6.636449432E0,3.790118408E-1,8.575868455E0
6.354793000E0,5.502707062E0,-6.739285583E0,3.034190369E-1,8.705734794E0
6.364858000E0,5.544769592E0,-6.678511963E0,3.963757324E-1,8.689309846E0
6.374924000E0,5.660478973E0,-6.517446899E0,5.499563599E-1,8.649889496E0
6.384990000E0,5.972430267E0,-6.453380127E0,6.153703308E-1,8.814460789E0
6.395055000E0,6.508764954E0,-6.696474609E0,3.516188049E-1,9.345075131E0
6.405121000E0,7.407496033E0,-7.207811279E0,-2.011816406E-1,1.033750526E1
6.415187000E0,8.193810883E0,-7.715256042E0,-6.848258972E-1,1.127531370E1
6.425253000E0,8.397387543E0,-7.960446167E0,-8.316705322E-1,1.160071104E1
6.435318000E0,8.199049988E0,-7.929460602E0,-7.339237976E-1,1.142975985E1
6.445384000E0,8.217910767E0,-7.947572937E0,-5.936654663E-1,1.144772517E1
6.455450000E0,8.411009216E0,-7.955955505E0,-3.611988831E-1,1.158329697E1
6.465515000E0,8.566685486E0,-7.732769623E0,-8.038284302E-2,1.154080966E1
6.475581000E0,8.854536896E0,-7.381300507E0,1.803749084E-1,1.152904835E1
6.485647000E0,9.352700958E0,-7.025490417E0,4.305047607E-1,1.170537762E1
6.495712000E0,1.000594254E1,-6.741979980E0,5.117857361E-1,1.207622063E1
6.505778000E0,1.044887146E1,-6.539451141E0,5.050497437E-1,1.233687202E1
6.515844000E0,1.065424438E1,-6.400839386E0,4.866380310E-1,1.243866893E1
6.525910000E0,1.067684738E1,-6.340963898E0,4.800517273E-1,1.242712126E1
6.535975000E0,1.058538757E1,-6.439309387E0,4.710704041E-1,1.239907427E1
6.546041000E0,1.044378204E1,-6.555767212E0,4.224215698E-1,1.233811603E1
6.556107000E0,1.029289581E1,-6.622827759E0,3.505709839E-1,1.224452742E1
6.566172000E0,1.012748978E1,-6.584806824E0,1.874102783E-1,1.208142594E1
6.576238000E0,9.918224945E0,-6.380631409E0,-3.412902832E-2,1.179342224E1
6.586304000E0,9.808802490E0,-5.967340851E0,-2.076182556E-1,1.148324294E1
6.596369000E0,9.758507080E0,-5.449866943E0,-3.511697388E-1,1.118270228E1
6.606435000E0,9.621990967E0,-4.894222412E0,-4.300556946E-1,1.080375264E1
6.616501000E0,9.475595398E0,-4.315525818E0,-4.721182251E-1,1.042274277E1
6.626567000E0,9.398056641E0,-3.816463623E0,-4.911286926E-1,1.015529766E1
6.636632000E0,9.189540253E0,-3.342698822E0,-4.394860840E-1,9.788484739E0
6.646698000E0,9.013805695E0,-2.999462585E0,-3.195854187E-1,9.505135651E0
6.656764000E0,8.816216583E0,-2.746937714E0,-1.818717957E-1,9.236039140E0
6.666829000E0,8.562793579E0,-2.529739380E0,-8.532257080E-3,8.928666642E0
6.676895000E0,8.351433105E0,-2.397414551E0,6.376739502E-2,8.688964134E0
6.686961000E0,8.127798157E0,-2.292782135E0,1.100212097E-1,8.445712371E0
6.697026000E0,7.984396362E0,-2.258952484E0,1.097218323E-1,8.298523391E0
6.707092000E0,8.001161499E0,-2.263742523E0,1.215472412E-1,8.316122250E0
6.717158000E0,8.165220337E0,-2.302062836E0,1.851649475E-1,8.485552575E0
6.727224000E0,8.587342529E0,-2.436034241E0,3.611988831E-1,8.933486395E0
6.737289000E0,9.155261536E0,-2.626887360E0,5.767506409E-1,9.542116761E0
6.747355000E0,9.678573303E0,-2.715054016E0,6.929090881E-1,1.007603208E1
6.757421000E0,1.003677841E1,-2.812800751E0,6.342311096E-1,1.044274954E1
6.767486000E0,1.006656647E1,-2.907254333E0,5.516029358E-1,1.049248083E1
6.777552000E0,9.865384827E0,-2.867437134E0,5.909710693E-1,1.029063945E1
6.787618000E0,9.686207428E0,-2.814746704E0,7.837701416E-1,1.011729751E1
6.797683000E0,9.518406372E0,-2.583477631E0,1.109343109E0,9.924971469E0
6.807749000E0,9.479337616E0,-2.217039642E0,1.463955688E0,9.844606273E0
6.817815000E0,9.682614899E0,-1.868414612E0,1.689536591E0,1.000492570E1
6.827881000E0,1.016850449E1,-1.635798340E0,1.669178925E0,1.043362248E1
6.837946000E0,1.078372513E1,-1.510957947E0,1.457818451E0,1.098621665E1
6.848012000E0,1.154010223E1,-1.556762695E0,1.134790192E0,1.169979566E1
6.858078000E0,1.207104813E1,-1.716330872E0,9.292675781E-1,1.222781799E1
6.868143000E0,1.212523544E1,-1.844165039E0,9.306147766E-1,1.229993183E1
6.878209000E0,1.199500626E1,-1.967957611E0,1.102307739E0,1.220524947E1
6.888275000E0,1.197360077E1,-2.176623688E0,1.322948914E0,1.224152768E1
6.898340000E0,1.210966782E1,-2.314487000E0,1.456022186E0,1.241454410E1
6.908406000E0,1.248823059E1,-2.480342102E0,1.328188019E0,1.280125321E1
6.918472000E0,1.305944275E1,-2.826123047E0,9.406439209E-1,1.339480599E1
6.928538000E0,1.359862152E1,-3.284020844E0,4.568499756E-1,1.399700011E1
6.938603000E0,1.420740555E1,-3.950435028E0,9.580078125E-3,1.474640299E1
6.948669000E0,1.455378525E1,-4.556075592E0,-6.451583862E-2,1.525039843E1
6.958735000E0,1.468640945E1,-4.825964355E0,3.579057312E-1,1.546313846E1
6.968800000E0,1.500584518E1,-4.895270233E0,9.575587463E-1,1.581315842E1
6.978866000E0,1.545850388E1,-4.733456726E0,1.439406738E0,1.623092254E1
6.988932000E0,1.562675400E1,-4.295467529E0,1.723066864E0,1.629771276E1
6.998997000E0,1.567645065E1,-3.821852417E0,1.912872162E0,1.624859197E1
7.009063000E0,1.558573929E1,-3.576811981E0,1.992955627E0,1.611461217E1
7.019129000E0,1.535372177E1,-3.729644165E0,1.976489868E0,1.592336428E1
7.029194000E0,1.482532059E1,-4.113595734E0,1.921853485E0,1.550500955E1
7.039260000E0,1.405397461E1,-4.636159058E0,1.971250763E0,1.492963505E1
7.049326000E0,1.315479446E1,-5.243446198E0,2.021246796E0,1.430481681E1
7.059392000E0,1.234737350E1,-5.853128357E0,2.033970337E0,1.381498387E1
7.069457000E0,1.161000687E1,-6.389313354E0,2.011217651E0,1.340375250E1
7.079523000E0,1.108070755E1,-6.758595428E0,1.898951111E0,1.311741999E1
7.089589000E0,1.093655731E1,-7.050787811E0,1.653611298E0,1.311702424E1
7.099654000E0,1.089449478E1,-7.122937775E0,1.449735260E0,1.309686953E1
7.109720000E0,1.078237793E1,-7.071145477E0,1.366508331E0,1.296642268E1
7.119786000E0,1.053374496E1,-6.928043060E0,1.424138489E0,1.268801537E1
7.129851000E0,1.022583527E1,-6.749913483E0,1.533111877E0,1.234825781E1
7.139917000E0,9.955946503E0,-6.574478302E0,1.713935852E0,1.205330709E1
7.149983000E0,9.641899567E0,-6.302493896E0,1.882485352E0,1.167182109E1
7.160049000E0,9.415869598E0,-6.063890076E0,1.861079865E0,1.135310448E1
7.170114000E0,9.165889435E0,-5.835465088E0,1.759740601E0,1.100740064E1
7.180180000E0,8.793014832E0,-5.571563873E0,1.632505188E0,1.053681674E1
7.190246000E0,8.409961395E0,-5.284610596E0,1.360820160E0,1.002528759E1
7.200311000E0,8.162076874E0,-5.020260315E0,1.030307465E0,9.637636951E0
7.210377000E0,7.996970215E0,-4.807852020E0,7.903564453E-1,9.364381292E0
7.220443000E0,7.837102661E0,-4.659809875E0,6.758445740E-1,9.142798920E0
7.230508000E0,7.729476471E0,-4.655468903E0,6.015989685E-1,9.043236066E0
7.240574000E0,7.583679657E0,-4.733157349E0,6.164181519E-1,8.960744777E0
7.250640000E0,7.375013580E0,-4.805457001E0,6.230044556E-1,8.824476010E0
7.260705000E0,7.246131592E0,-4.963528290E0,5.207670593E-1,8.798535927E0
7.270771000E0,7.011719055E0,-5.163811798E0,5.325924683E-1,8.724265650E0
7.280837000E0,6.668333130E0,-5.273533630E0,6.611750793E-1,8.527249039E0
7.290903000E0,6.413263550E0,-5.446124725E0,8.074209595E-1,8.452345975E0
7.300968000E0,6.180198212E0,-5.637726288E0,1.019529877E0,8.427232571E0
7.311034000E0,5.905220032E0,-5.694308624E0,1.264720001E0,8.300378968E0
7.321100000E0,5.649701385E0,-5.708678741E0,1.380728760E0,8.149512294E0
7.331165000E0,5.465733948E0,-5.695655823E0,1.413510590E0,8.019523366E0
7.341231000E0,5.297483826E0,-5.643414459E0,1.395248566E0,7.864997152E0
7.351297000E0,5.187612305E0,-5.593418427E0,1.344653778E0,7.746337515E0
7.361362000E0,5.222938843E0,-5.585185547E0,1.231938171E0,7.745389558E0
7.371428000E0,5.351820831E0,-5.714516602E0,1.084644470E0,7.904058440E0
7.381494000E0,5.513185272E0,-5.919889526E0,8.988807678E-1,8.139305283E0
7.391560000E0,5.784570923E0,-6.206842804E0,6.224057007E-1,8.507264379E0
7.401625000E0,6.072572021E0,-6.542145538E0,3.263214111E-1,8.932092972E0
7.411691000E0,6.206244049E0,-6.847809906E0,2.406994629E-1,9.244885177E0
7.421757000E0,6.194119263E0,-6.871011658E0,4.370910645E-1,9.261153451E0
7.431822000E0,6.377338257E0,-6.703360291E0,7.009922791E-1,9.278840046E0
7.441888000E0,6.689289551E0,-6.492598572E0,8.933422852E-1,9.364747266E0
7.451954000E0,7.203769684E0,-6.383325806E0,8.219407654E-1,9.660058624E0
7.462019000E0,7.959997101E0,-6.646628265E0,4.086502075E-1,1.037816054E1
7.472085000E0,8.519533539E0,-7.061565399E0,-1.052311707E-1,1.106612991E1
7.482151000E0,8.712781677E0,-7.446864166E0,-6.203100586E-1,1.147837685E1
7.492216000E0,8.641829224E0,-7.775131531E0,-9.101074219E-1,1.166028208E1
7.502282000E0,8.381221161E0,-7.976313171E0,-8.701405334E-1,1.160274039E1
7.512348000E0,8.054899750E0,-8.054300995E0,-7.488926697E-1,1.141551640E1
7.522414000E0,7.920329590E0,-7.986641693E0,-5.545967102E-1,1.126168921E1
7.532479000E0,8.038733368E0,-7.634124756E0,-1.323248291E-1,1.108686632E1
7.542545000E0,8.611592102E0,-7.181765442E0,2.993774414E-1,1.121725903E1
7.552611000E0,9.310189362E0,-6.758445740E0,5.471122742E-1,1.151761896E1
7.562676000E0,9.947563934E0,-6.397995300E0,5.791456604E-1,1.184161230E1
7.572742000E0,1.038300842E1,-6.241869965E0,4.468208313E-1,1.212301338E1
7.582808000E0,1.057505905E1,-6.256838837E0,2.721340942E-1,1.229040126E1
7.592873000E0,1.053060150E1,-6.417754211E0,2.049238586E-1,1.233382061E1
7.602939000E0,1.040456360E1,-6.618337097E0,2.374063110E-1,1.233343794E1
7.613005000E0,1.023796005E1,-6.717730408E0,2.957849121E-1,1.224872306E1
7.623071000E0,1.004605911E1,-6.720424805E0,3.665876770E-1,1.209222063E1
7.633136000E0,9.837542725E0,-6.510411530E0,3.613485718E-1,1.180225732E1
7.643202000E0,9.732760620E0,-6.069877625E0,2.453398132E-1,1.147302206E1
7.653268000E0,9.624535675E0,-5.523962860E0,6.571334839E-2,1.109730467E1
7.663333000E0,9.430090027E0,-4.974754944E0,-1.140628052E-1,1.066244789E1
7.673399000E0,9.388177185E0,-4.474794617E0,-2.790197754E-1,1.040382188E1
7.683465000E0,9.277557220E0,-3.979774017E0,-4.128414917E-1,1.010356904E1
7.693530000E0,9.098828888E0,-3.557053070E0,-5.095404053E-1,9.782685986E0
7.703596000E0,8.918753357E0,-3.252137146E0,-5.339396667E-1,9.508188525E0
7.713662000E0,8.629554749E0,-3.006797333E0,-4.252656555E-1,9.148272855E0
7.723727000E0,8.275540924E0,-2.798131256E0,-2.610571289E-1,8.739694900E0
7.733793000E0,7.967481537E0,-2.756817169E0,-1.428030396E-1,8.432152492E0
7.743859000E0,7.722291412E0,-2.759062500E0,-9.984237671E-2,8.200986467E0
7.753925000E0,7.523355103E0,-2.704875183E0,-8.921447754E-2,7.995322444E0
7.763990000E0,7.485783234E0,-2.669698334E0,-1.457968140E-1,7.948930527E0
7.774056000E0,7.613168335E0,-2.681673431E0,-2.095642090E-1,8.074380574E0
7.784122000E0,7.856113129E0,-2.595602417E0,-1.802252197E-1,8.275756553E0
7.794187000E0,8.173453217E0,-2.531236267E0,-1.017883301E-1,8.557035432E0
7.804253000E0,8.619675293E0,-2.545307007E0,1.167572021E-2,8.987631848E0
7.814319000E0,8.933722229E0,-2.631378021E0,1.886077881E-1,9.315101505E0
7.824384000E0,9.040300598E0,-2.701731720E0,4.123924255E-1,9.444387577E0
7.834450000E0,9.100325775E0,-2.745590515E0,5.987548828E-1,9.524321703E0
7.844516000E0,9.076824646E0,-2.709964600E0,7.408094788E-1,9.501655249E0
7.854581000E0,9.071435852E0,-2.435734863E0,8.825646973E-1,9.434122810E0
7.864647000E0,9.207353210E0,-2.095642090E0,9.624984741E-1,9.491758121E0
7.874713000E0,9.622290344E0,-1.912123718E0,8.854087830E-1,9.850311533E0
7.884779000E0,1.022388931E1,-1.813778229E0,6.791377258E-1,1.040571632E1
7.894844000E0,1.083177521E1,-1.762135620E0,4.278103638E-1,1.098250872E1
7.904910000E0,1.129491211E1,-1.823208618E0,3.153941345E-1,1.144546210E1
7.914976000E0,1.163784897E1,-2.055375824E0,3.766168213E-1,1.182395613E1
7.925041000E0,1.187271057E1,-2.379751282E0,5.912704468E-1,1.212328640E1
7.935107000E0,1.195503937E1,-2.597248993E0,8.958869934E-1,1.226667364E1
7.945173000E0,1.203422470E1,-2.727029114E0,1.126257935E0,1.239062988E1
7.955238000E0,1.227492416E1,-2.895428925E0,1.115480347E0,1.266102556E1
7.965304000E0,1.282053955E1,-3.176993408E0,8.599617004E-1,1.323627801E1
7.975370000E0,1.352931564E1,-3.781137085E0,3.381468201E-1,1.405182275E1
7.985436000E0,1.410337189E1,-4.630321198E0,-9.639953613E-2,1.484433447E1
7.995501000E0,1.450842957E1,-5.488486633E0,-1.160087585E-1,1.551230067E1
8.005567000E0,1.462054642E1,-6.000571747E0,5.366340637E-1,1.581313425E1
8.015633000E0,1.461051727E1,-6.099366302E0,1.494492188E0,1.590292398E1
8.025698000E0,1.501811966E1,-5.798491974E0,2.217189331E0,1.625061094E1
8.035764000E0,1.542572205E1,-5.028642883E0,2.411634979E0,1.640293063E1
8.045830000E0,1.555490341E1,-4.078718262E0,2.265389099E0,1.623954896E1
8.055895000E0,1.546643738E1,-3.388503571E0,2.039658508E0,1.596411126E1
8.065961000E0,1.512529678E1,-3.167712708E0,1.787283325E0,1.555645809E1
8.076027000E0,1.451800964E1,-3.307821350E0,1.560055847E0,1.497157508E1
8.086092000E0,1.374142456E1,-3.713477783E0,1.486858063E0,1.431179280E1
8.096158000E0,1.289508453E1,-4.252207489E0,1.431024170E0,1.365328912E1
8.106224000E0,1.218720657E1,-4.821024628E0,1.339414673E0,1.317438098E1
8.116289000E0,1.163575333E1,-5.350773010E0,1.272803192E0,1.287018086E1
8.126355000E0,1.116363510E1,-5.904920654E0,1.223705292E0,1.268827377E1
8.136421000E0,1.110899872E1,-6.492748260E0,1.151854706E0,1.291868421E1
8.146487000E0,1.125659180E1,-6.808292084E0,1.233435059E0,1.321306407E1
8.156552000E0,1.132350266E1,-6.874454498E0,1.281335449E0,1.330870608E1
8.166618000E0,1.120779327E1,-6.784790955E0,1.312171326E0,1.316699707E1
8.176684000E0,1.090093140E1,-6.499334564E0,1.313069458E0,1.275914599E1
8.186749417E0,1.053778656E1,-6.151907043E0,1.276545410E0,1.226867858E1
8.196815417E0,1.013317795E1,-5.785169678E0,1.254092102E0,1.173551152E1
8.206881417E0,9.733359375E0,-5.501808929E0,1.254391479E0,1.125085260E1
8.216946417E0,9.321865082E0,-5.263953552E0,1.316512299E0,1.078608271E1
8.227012417E0,8.944200439E0,-5.089566193E0,1.369502106E0,1.038161556E1
8.237078417E0,8.614885254E0,-4.993316345E0,1.343456268E0,1.004760324E1
8.247144417E0,8.337062988E0,-4.920417938E0,1.277443542E0,9.764680945E0
8.257209417E0,8.113428040E0,-4.864883423E0,1.207239532E0,9.536887991E0
8.267275417E0,7.932454376E0,-4.810845795E0,1.121916962E0,9.344879205E0
8.277341417E0,7.780370636E0,-4.807103577E0,1.037193146E0,9.204248022E0
8.287406417E0,7.647297363E0,-4.839586029E0,9.743238831E-1,9.102310527E0
8.297472417E0,7.444918213E0,-4.938530273E0,9.430389404E-1,8.983607900E0
8.307538417E0,7.250622253E0,-5.063071289E0,8.500822449E-1,8.884191227E0
8.317603417E0,7.095993805E0,-5.188360748E0,8.090675354E-1,8.827616077E0
8.327669417E0,6.924899597E0,-5.278323669E0,8.113128662E-1,8.744893582E0
8.337735417E0,6.771768036E0,-5.333259430E0,8.586145020E-1,8.662431376E0
8.347800417E0,6.591842194E0,-5.384452972E0,9.595046997E-1,8.565358521E0
8.357866417E0,6.404282227E0,-5.451513519E0,1.070873108E0,8.478242725E0
8.367932417E0,6.187682648E0,-5.495072937E0,1.183139648E0,8.359608996E0
8.377997417E0,5.992338867E0,-5.458698578E0,1.305585022E0,8.210363421E0
8.388063417E0,5.860762482E0,-5.482948151E0,1.429377594E0,8.151955446E0
8.398129417E0,5.811365204E0,-5.487738190E0,1.537003784E0,8.139386746E0
8.408195417E0,5.748495941E0,-5.521567841E0,1.599274292E0,8.129612246E0
8.418260417E0,5.641767883E0,-5.579048309E0,1.698966980E0,8.114296869E0
8.428326417E0,5.604645081E0,-5.696254578E0,1.727407837E0,8.175775225E0
8.438392417E0,5.657335510E0,-5.885161743E0,1.611848145E0,8.320975199E0
8.448457417E0,5.736820221E0,-6.118825836E0,1.466799774E0,8.514848057E0
8.458523417E0,5.746849365E0,-6.372099152E0,1.334624634E0,8.683959243E0
8.468589417E0,5.689967651E0,-6.581663361E0,1.189576263E0,8.781179656E0
8.478654417E0,5.695057068E0,-6.631210327E0,1.095272369E0,8.809440787E0
8.488720417E0,5.892945557E0,-6.660699005E0,1.013542328E0,8.950920993E0
8.498786417E0,6.350993042E0,-6.678062897E0,9.484277344E-1,9.264510340E0
8.508851417E0,7.065307617E0,-6.691085815E0,8.150550842E-1,9.764912488E0
8.518917417E0,7.991731110E0,-6.879094849E0,3.839515686E-1,1.055164115E1
8.528983417E0,8.672665100E0,-7.176077271E0,-1.185534668E-1,1.125723145E1
8.539049417E0,8.954678650E0,-7.420968018E0,-5.920188904E-1,1.164506429E1
8.549114417E0,8.749754791E0,-7.544910278E0,-8.851094055E-1,1.158737670E1
8.559180417E0,8.352630615E0,-7.532785492E0,-1.068328400E0,1.129825743E1
8.569246417E0,8.097710724E0,-7.498357086E0,-1.178050232E0,1.109892248E1
8.579311417E0,8.032745819E0,-7.367978210E0,-1.118923187E0,1.095737639E1
8.589377417E0,8.135881348E0,-7.036417694E0,-7.526348877E-1,1.078286597E1
8.599443417E0,8.519683228E0,-6.638245697E0,-3.129991150E-1,1.080505792E1
8.609508417E0,9.031768341E0,-6.307134247E0,3.233276367E-2,1.101607131E1
8.619574417E0,9.550739136E0,-6.081104279E0,1.639091492E-1,1.132357335E1
8.629640417E0,9.974358215E0,-5.918093262E0,9.160949707E-2,1.159827754E1
8.639705417E0,1.019709503E1,-5.886508942E0,-1.645079041E-1,1.177534702E1
8.649771417E0,1.026235931E1,-5.939349060E0,-3.736230469E-1,1.186302997E1
8.659837417E0,1.031370255E1,-6.047574005E0,-4.478686523E-1,1.196437202E1
8.669903417E0,1.042447220E1,-6.149212646E0,-4.508624268E-1,1.211138777E1
8.679968417E0,1.046743286E1,-6.163433075E0,-4.936734009E-1,1.215725180E1
8.690034417E0,1.039872574E1,-6.083648987E0,-5.798941040E-1,1.206153221E1
8.700100417E0,1.026131149E1,-5.861810303E0,-6.424639893E-1,1.183503669E1
8.710165417E0,1.009545639E1,-5.456602936E0,-6.438111877E-1,1.149379172E1
8.720231417E0,1.000504440E1,-4.944517822E0,-6.888674927E-1,1.118140011E1
8.730297417E0,9.975406036E0,-4.427343292E0,-6.999444580E-1,1.093617924E1
8.740362417E0,9.973310394E0,-3.922592926E0,-6.436614990E-1,1.073629152E1
8.750428417E0,9.938881989E0,-3.454516296E0,-4.806504822E-1,1.053309465E1
8.760494417E0,9.823621674E0,-3.032543793E0,-2.697390747E-1,1.028458185E1
8.770559417E0,9.610315247E0,-2.715203705E0,-8.412506104E-2,9.986869746E0
8.780625417E0,9.267677765E0,-2.427052917E0,3.876937866E-2,9.580289144E0
8.790691417E0,8.896000671E0,-2.311942291E0,5.164260864E-2,9.191657743E0
8.800756417E0,8.554710388E0,-2.297572174E0,3.038681030E-2,8.857924761E0
8.810822417E0,8.312813416E0,-2.317181396E0,4.685256958E-2,8.629854673E0
8.820888417E0,8.175548859E0,-2.370620270E0,1.327738953E-1,8.513346493E0
8.830954417E0,8.097411346E0,-2.331401825E0,7.798782349E-2,8.426718643E0
8.841019417E0,8.143814850E0,-2.300565948E0,-6.017486572E-2,8.462738623E0
8.851085417E0,8.174800415E0,-2.208208008E0,-2.520758057E-1,8.471545706E0
8.861151417E0,8.162975006E0,-2.145039368E0,-5.565426636E-1,8.458433340E0
8.871216417E0,8.324189758E0,-2.202968903E0,-7.608677673E-1,8.644311822E0
8.881282417E0,8.580456848E0,-2.311493225E0,-7.731422424E-1,8.919920940E0
8.891348417E0,8.810678101E0,-2.314337311E0,-4.460723877E-1,9.120481695E0
8.901413417E0,9.002279663E0,-2.110910339E0,-2.535726929E-1,9.249934092E0
8.911479417E0,9.293274536E0,-2.006128235E0,-2.589614868E-2,9.507374649E0
8.921545417E0,9.093140717E0,-1.601369934E0,4.534071350E-1,9.244196654E0
8.931610417E0,9.184899902E0,-1.291214905E0,5.349874878E-1,9.290631505E0
8.941676417E0,9.818083191E0,-1.132395172E0,3.251239014E-1,9.888517681E0
8.951742417E0,1.065604065E1,-9.548643494E-1,1.496887207E-3,1.069873686E1
8.961808417E0,1.111812973E1,-1.465302887E0,-2.824626160E-1,1.121782984E1
8.971873417E0,1.167661835E1,-1.355581055E0,-1.905537415E-1,1.175658653E1
8.981939417E0,1.243643829E1,-1.152902527E0,-2.868035889E-1,1.249305559E1
8.992005417E0,1.279479309E1,-1.594035187E0,-1.990859985E-1,1.289524384E1
9.002070417E0,1.245604752E1,-1.933229828E0,-7.783813477E-3,1.260517980E1
9.012136417E0,1.215397568E1,-2.354453888E0,2.713856506E-1,1.238290063E1
9.022202417E0,1.234557724E1,-2.903063049E0,7.297325134E-1,1.270328942E1
9.032267417E0,1.301423676E1,-3.315156097E0,9.780661011E-1,1.346540870E1
9.042333417E0,1.367765717E1,-3.928879852E0,8.557704163E-1,1.425646329E1
9.052399417E0,1.401789963E1,-4.671635284E0,5.923182678E-1,1.478771541E1
9.062464417E0,1.418809570E1,-5.120102692E0,8.777746582E-1,1.510920248E1
9.072530417E0,1.469000198E1,-5.203479309E0,1.840572510E0,1.569267544E1
9.082596417E0,1.463701218E1,-4.696184235E0,2.107317810E0,1.551570366E1
9.092662417E0,1.468835541E1,-4.239633636E0,2.143692169E0,1.543754171E1
9.102727417E0,1.499596573E1,-3.578159180E0,2.497855682E0,1.561798624E1
9.112793417E0,1.485001923E1,-2.606679382E0,2.272574158E0,1.524737491E1
9.122859417E0,1.483026031E1,-2.343975677E0,1.752555542E0,1.511629233E1
9.132924417E0,1.449585571E1,-2.354154510E0,1.142574005E0,1.473015111E1
9.142990417E0,1.399903885E1,-2.641556854E0,5.969586182E-1,1.425858587E1
9.153056417E0,1.343366455E1,-3.171454926E0,3.403921509E-1,1.380714802E1
9.163121417E0,1.272518784E1,-3.816014557E0,3.246748352E-1,1.328900998E1
9.173187417E0,1.202973404E1,-4.507426758E0,4.228706360E-1,1.285341264E1
9.183253667E0,1.157782379E1,-5.189707947E0,6.827302551E-1,1.270610849E1
9.193318667E0,1.143621826E1,-5.723647614E0,9.723779297E-1,1.282547266E1
9.203384667E0,1.146346161E1,-6.105503540E0,1.289119263E0,1.305181803E1
9.213450667E0,1.156629776E1,-6.257138214E0,1.591041412E0,1.324622343E1
9.223515667E0,1.143606857E1,-6.284531250E0,1.754351807E0,1.316650097E1
9.233581667E0,1.119671631E1,-6.232589264E0,1.788630524E0,1.293873348E1
9.243647667E0,1.078342575E1,-6.044131165E0,1.841620331E0,1.249821419E1
9.253713667E0,1.025816803E1,-5.730233917E0,1.857936401E0,1.189611364E1
9.263778667E0,9.873168640E0,-5.383704529E0,1.766626282E0,1.138352765E1
9.273844667E0,9.566606140E0,-4.969515839E0,1.617536316E0,1.090103043E1
9.283910667E0,9.350904694E0,-4.588707733E0,1.425635376E0,1.051323421E1
9.293975667E0,9.208550720E0,-4.287534027E0,1.266366577E0,1.023640751E1
9.304041667E0,9.068591766E0,-4.143832855E0,1.235081635E0,1.004669767E1
9.314107667E0,8.818611603E0,-4.085454254E0,1.287023621E0,9.803839904E0
9.324172667E0,8.497529297E0,-3.984114990E0,1.317111053E0,9.477128148E0
9.334238667E0,8.260272675E0,-3.941603394E0,1.198258209E0,9.230610202E0
9.344304667E0,8.129295044E0,-4.023483124E0,1.071022797E0,9.133506675E0
9.354369667E0,7.928562469E0,-4.124822388E0,9.427395630E-1,8.986936099E0
9.364435667E0,7.667804718E0,-4.269421692E0,9.187893677E-1,8.824248675E0
9.374501667E0,7.365283813E0,-4.445904694E0,9.889933777E-1,8.659768016E0
9.384566667E0,7.081923065E0,-4.622687073E0,1.057550812E0,8.522985615E0
9.394632667E0,6.892267456E0,-4.799918518E0,1.119072876E0,8.473186683E0
9.404698667E0,6.801556091E0,-4.988226929E0,1.162332916E0,8.514375547E0
9.414764667E0,6.635102234E0,-5.079387360E0,1.190324707E0,8.440475728E0
9.424829667E0,6.390810242E0,-5.091512146E0,1.194515991E0,8.257894401E0
9.434895667E0,6.215075684E0,-5.192701721E0,1.199904785E0,8.187251579E0
9.444961667E0,6.029910736E0,-5.273683319E0,1.284778290E0,8.113089084E0
9.455026667E0,5.735772400E0,-5.294040985E0,1.326840820E0,7.917478231E0
9.465092667E0,5.519621887E0,-5.329666901E0,1.227597198E0,7.770364852E0
9.475158667E0,5.340594177E0,-5.283263397E0,1.103804626E0,7.592970627E0
9.485223667E0,5.364993439E0,-5.385650482E0,9.391470337E-1,7.659659448E0
9.495289667E0,5.512885895E0,-5.669909363E0,7.559280396E-1,7.944256433E0
9.505355667E0,5.795947266E0,-6.115832062E0,7.613168335E-1,8.460260625E0
9.515420667E0,6.134393463E0,-6.625821533E0,9.255253601E-1,9.076832671E0
9.525486667E0,6.148164825E0,-6.968459015E0,9.638456726E-1,9.342823462E0
9.535552667E0,5.995482330E0,-7.012617188E0,1.037043457E0,9.284291428E0
9.545617667E0,5.890700226E0,-6.732998657E0,1.075962524E0,9.010622366E0
9.555683667E0,6.155798950E0,-6.430627441E0,8.479866028E-1,8.942366090E0
9.565749667E0,7.081923065E0,-6.320007477E0,4.453239441E-1,9.502338776E0
9.575815667E0,8.216264191E0,-6.627917175E0,1.516346741E-1,1.055742755E1
9.585880667E0,9.265133057E0,-7.229067078E0,-5.089416504E-2,1.175179525E1
9.595946667E0,9.298663330E0,-7.643405457E0,-3.691323853E-1,1.204255145E1
9.606012667E0,8.560548248E0,-7.876321106E0,-1.083297272E0,1.168301988E1
9.616077667E0,8.460406494E0,-7.771838379E0,-1.939217377E0,1.165077310E1
9.626143667E0,8.252039795E0,-7.495962067E0,-2.012115784E0,1.132846936E1
9.636209667E0,8.062982941E0,-7.307204590E0,-1.224004669E0,1.095011965E1
9.646274667E0,8.527766418E0,-6.922803955E0,-4.954696655E-1,1.099515825E1
9.656340667E0,9.192534027E0,-6.337071991E0,-9.445358276E-2,1.116557588E1
9.666406667E0,1.002779709E1,-6.011499023E0,-1.092727661E-1,1.169216727E1
9.676471667E0,1.058014847E1,-5.981710968E0,-3.499722290E-1,1.215906609E1
9.686537667E0,1.079944244E1,-6.133944397E0,-4.391867065E-1,1.242763517E1
9.696603667E0,1.136122421E1,-6.583160248E0,6.259982300E-1,1.314561859E1
9.706668667E0,1.099643280E1,-6.436315613E0,8.517288208E-2,1.274185808E1
9.716734667E0,1.029439270E1,-6.442153473E0,-7.282356262E-1,1.216577945E1
9.726800667E0,1.032642609E1,-6.437513123E0,-4.625381470E-1,1.217746248E1
9.736865667E0,1.016326538E1,-6.168073425E0,-4.029620361E-1,1.189535503E1
9.746931667E0,9.968220978E0,-5.660628662E0,-4.517605591E-1,1.147223753E1
9.756997667E0,9.770482178E0,-5.036576385E0,-5.005590820E-1,1.100363499E1
9.767063667E0,9.705816650E0,-4.465513916E0,-6.486012268E-1,1.070347490E1
9.777128667E0,9.588909760E0,-3.945195923E0,-8.108638000E-1,1.040044525E1
9.787194667E0,9.409732361E0,-3.459306335E0,-9.186396790E-1,1.006746057E1
9.797260667E0,9.193881226E0,-3.082090759E0,-9.398954773E-1,9.742183479E0
9.807325667E0,8.893605652E0,-2.801723785E0,-9.183403015E-1,9.369590523E0
9.817391667E0,8.540639648E0,-2.649340668E0,-9.107061768E-1,8.988376790E0
9.827457667E0,8.164621582E0,-2.580184479E0,-8.352630615E-1,8.603258796E0
9.837522667E0,7.821385345E0,-2.548300781E0,-7.036866760E-1,8.256093539E0
9.847588667E0,7.550299072E0,-2.611768799E0,-4.897814941E-1,8.004263754E0
9.857654667E0,7.293882294E0,-2.638114014E0,-2.972817993E-1,7.762006244E0
9.867719667E0,7.213798828E0,-2.637964325E0,-2.237846375E-1,7.684258512E0
9.877785667E0,7.293582916E0,-2.660267944E0,-3.073109436E-1,7.769672922E0
9.887851667E0,7.480244751E0,-2.699037323E0,-3.899391174E-1,7.961841277E0
9.897916667E0,7.698490906E0,-2.701132965E0,-5.153782654E-1,8.174869802E0
9.907982667E0,7.970325623E0,-2.777773590E0,-6.201603699E-1,8.463256792E0
9.918048667E0,8.139623566E0,-2.791994019E0,-5.218148804E-1,8.620962427E0
9.928114667E0,8.258775787E0,-2.848426666E0,-2.835104370E-1,8.740783154E0
9.938179667E0,8.371790771E0,-2.889291687E0,6.286926270E-2,8.856570426E0
9.948245667E0,8.493637390E0,-2.736309814E0,4.903802490E-1,8.936987205E0
9.958311667E0,8.696764984E0,-2.386786652E0,7.688012695E-1,9.051051160E0
9.968376667E0,9.038803711E0,-1.977986755E0,8.393046570E-1,9.290685466E0
9.978442667E0,9.471703491E0,-1.673519897E0,6.319857788E-1,9.639151513E0
9.988508667E0,9.983638916E0,-1.550475769E0,2.854563904E-1,1.010734913E1
9.998573667E0,1.050829788E1,-1.632205811E0,-1.062789917E-1,1.063483500E1
1.000863967E1,1.098834961E1,-1.872156830E0,-3.981719971E-1,1.115380380E1
1.001870567E1,1.137125336E1,-2.253713379E0,-4.816983032E-1,1.160244199E1
1.002877067E1,1.170595734E1,-2.534230042E0,-3.344046021E-1,1.198180226E1
1.003883667E1,1.200368820E1,-2.667602692E0,-4.041595459E-2,1.229659579E1
1.004890267E1,1.240769806E1,-2.713557129E0,2.002835083E-1,1.270253821E1
1.005896767E1,1.285646484E1,-2.769091644E0,2.255809021E-1,1.315322940E1
1.006903367E1,1.319251602E1,-2.754122772E0,2.263293457E-1,1.347883141E1
1.007909967E1,1.356329498E1,-2.815195770E0,2.101629639E-1,1.385396934E1
1.008916567E1,1.415007477E1,-3.259322205E0,8.442443848E-2,1.452084449E1
1.009923067E1,1.452010529E1,-4.004921722E0,-8.367599487E-2,1.506253157E1
1.010929667E1,1.434541855E1,-4.724176025E0,-9.505233765E-2,1.510357267E1
1.011936267E1,1.396700546E1,-5.285359039E0,1.749861145E-1,1.493462025E1
1.012942767E1,1.370145767E1,-5.490133209E0,7.197033691E-1,1.477800656E1
1.013949367E1,1.355446335E1,-5.207371216E0,1.270408173E0,1.457580628E1
1.014955967E1,1.376821884E1,-4.552333374E0,1.544488220E0,1.458331352E1
1.015962467E1,1.394036087E1,-3.835324402E0,1.289418640E0,1.451571476E1
1.016969067E1,1.402014496E1,-3.393892365E0,8.616082764E-1,1.445079025E1
1.017975667E1,1.388647293E1,-3.278632050E0,6.183641052E-1,1.428166421E1
1.018982179E1,1.352452560E1,-3.559597778E0,5.529501343E-1,1.399604526E1
1.019988779E1,1.307141785E1,-4.055516510E0,4.447251892E-1,1.369331805E1
1.020995379E1,1.281679733E1,-4.642146606E0,3.942800903E-1,1.363727523E1
1.022001879E1,1.269165756E1,-5.203030243E0,5.291496277E-1,1.372696961E1
1.023008479E1,1.253732849E1,-5.596711578E0,7.066804504E-1,1.374798834E1
1.024015079E1,1.251532425E1,-5.824388123E0,8.566685486E-1,1.383078881E1
1.025021579E1,1.259840149E1,-5.945486298E0,9.836045837E-1,1.396552918E1
1.026028179E1,1.257684631E1,-6.009702759E0,1.050665131E0,1.397846514E1
1.027034779E1,1.232447113E1,-5.985153809E0,1.083896027E0,1.374370712E1
1.028041279E1,1.195533875E1,-5.969137115E0,1.067130890E0,1.340520387E1
1.029047879E1,1.144310394E1,-5.921087036E0,1.038091278E0,1.292600221E1
1.030054479E1,1.080468155E1,-5.717510376E0,9.979747009E-1,1.226486942E1
1.031061079E1,1.020383102E1,-5.410798187E0,9.626481628E-1,1.158971941E1
1.032067579E1,9.723928986E0,-5.096601562E0,7.991880798E-1,1.100767205E1
1.033074179E1,9.305399323E0,-4.803810425E0,6.024971008E-1,1.048952115E1
1.034080779E1,8.861572266E0,-4.450095978E0,5.448669434E-1,9.931147830E0
1.035087279E1,8.533604279E0,-4.154011688E0,5.845344543E-1,9.508937670E0
1.036093879E1,8.389454041E0,-4.021537170E0,6.617738342E-1,9.327038379E0
1.037100479E1,8.324189758E0,-3.864214325E0,8.119116211E-1,9.213223538E0
1.038106979E1,8.258177032E0,-3.818259888E0,9.681866455E-1,9.149534515E0
1.039113579E1,8.178093567E0,-3.853736115E0,1.038540344E0,9.100058378E0
1.040120179E1,8.020471344E0,-3.981420593E0,1.023122406E0,9.012571774E0
1.041126679E1,7.816445618E0,-4.155658264E0,9.039701843E-1,8.898509976E0
1.042133279E1,7.632927246E0,-4.298610992E0,7.744894409E-1,8.794286139E0
1.043139879E1,7.474406891E0,-4.481530609E0,7.129673767E-1,8.744095005E0
1.044146379E1,7.299271088E0,-4.633913727E0,6.658154297E-1,8.671552631E0
1.045152979E1,7.092251587E0,-4.786296844E0,5.974076843E-1,8.577037134E0
1.046159579E1,6.898404694E0,-4.986280975E0,5.053491211E-1,8.526802626E0
1.047166179E1,6.586004333E0,-5.169949036E0,4.221221924E-1,8.383436840E0
1.048172679E1,6.292764130E0,-5.349425812E0,3.722758484E-1,8.267637281E0
1.049179279E1,5.992488556E0,-5.520669708E0,3.646417236E-1,8.156020887E0
1.050185879E1,5.744005280E0,-5.651347961E0,3.989204407E-1,8.067866382E0
1.051192379E1,5.532195740E0,-5.712121582E0,4.448748779E-1,7.964385496E0
1.052198979E1,5.486840057E0,-5.748346252E0,3.794609070E-1,7.955682814E0
1.053205579E1,5.573958893E0,-5.807024231E0,2.752775574E-1,8.053963365E0
1.054212079E1,5.695655823E0,-5.879323883E0,2.040257263E-1,8.188319185E0
1.055218679E1,5.871240692E0,-6.021378479E0,1.056802368E-1,8.410685725E0
1.056225279E1,5.998027039E0,-6.204298096E0,3.143463135E-3,8.629580123E0
1.057231779E1,6.148913269E0,-6.336922302E0,-4.535568237E-2,8.829936341E0
1.058238379E1,6.320157166E0,-6.519093475E0,-5.807922363E-2,9.079996670E0
1.059244979E1,6.421197052E0,-6.588399353E0,9.729766846E-3,9.199938711E0
1.060251479E1,6.640041962E0,-6.546935577E0,1.288819885E-1,9.325724276E0
1.061258079E1,7.099286957E0,-6.606960754E0,1.710942078E-1,9.699540140E0
1.062264679E1,7.713908844E0,-6.832391968E0,8.891510010E-2,1.030504127E1
1.063271179E1,8.275091858E0,-7.171586609E0,-1.107696533E-1,1.095084790E1
1.064277779E1,8.664432220E0,-7.479795685E0,-3.534150696E-1,1.145183965E1
1.065284379E1,8.650810547E0,-7.576344910E0,-5.176235962E-1,1.151110158E1
1.066290879E1,8.380173340E0,-7.537874908E0,-6.265969849E-1,1.128890992E1
1.067297479E1,8.033494263E0,-7.355853424E0,-6.063890076E-1,1.090932249E1
1.068304079E1,7.792196045E0,-7.050338745E0,-3.951782227E-1,1.051578630E1
1.069310679E1,7.939340057E0,-6.627617798E0,4.790039063E-2,1.034218220E1
1.070317179E1,8.522377625E0,-6.221063232E0,4.713697815E-1,1.056194762E1
1.071323779E1,9.339079285E0,-5.959107971E0,6.551875305E-1,1.109768626E1
1.072330379E1,1.015069153E1,-5.789510651E0,6.236032104E-1,1.170230119E1
1.073336879E1,1.072265213E1,-5.829477539E0,4.065545654E-1,1.221160774E1
1.074343479E1,1.091829529E1,-6.020180969E0,3.966751099E-2,1.246809225E1
1.075350079E1,1.083896027E1,-6.261030121E0,-2.686912537E-1,1.252021377E1
1.076356579E1,1.062789917E1,-6.484216003E0,-4.793032837E-1,1.245901399E1
1.077363179E1,1.041833496E1,-6.555168457E0,-5.757028198E-1,1.232247421E1
1.078369779E1,1.029349457E1,-6.364315338E0,-6.346801758E-1,1.211871937E1
1.079376279E1,1.027643005E1,-5.990692291E0,-7.243437195E-1,1.191713399E1
1.080382879E1,1.017973114E1,-5.466632080E0,-9.190887451E-1,1.159119133E1
1.081389479E1,1.005219635E1,-4.916975098E0,-1.099613342E0,1.124421830E1
1.082395979E1,9.920919342E0,-4.361629944E0,-1.160386963E0,1.089930981E1
1.083402579E1,9.748627625E0,-3.830983429E0,-1.170266418E0,1.053953026E1
1.084409179E1,9.517807617E0,-3.361409912E0,-1.150806885E0,1.015933536E1
1.085415679E1,9.207203522E0,-3.016527100E0,-1.072369995E0,9.747923360E0
1.086422279E1,8.886420593E0,-2.743644562E0,-9.550140381E-1,9.349230356E0
1.087428879E1,8.559650116E0,-2.501897278E0,-7.855664063E-1,8.952330125E0
1.088435479E1,8.280330963E0,-2.337539063E0,-6.268963623E-1,8.626758880E0
1.089441979E1,8.014334106E0,-2.174078979E0,-5.192701721E-1,8.320205051E0
1.090448579E1,7.801476746E0,-2.057920532E0,-4.595443726E-1,8.081414317E0
1.091455179E1,7.627538452E0,-1.965861969E0,-4.719685364E-1,7.890925828E0
1.092461679E1,7.601642303E0,-1.987267456E0,-5.098397827E-1,7.873635390E0
1.093468279E1,7.584877167E0,-2.000440063E0,-5.128335571E-1,7.860987237E0
1.094474879E1,7.574398956E0,-1.993404694E0,-5.987548828E-1,7.855169586E0
1.095481379E1,7.799381104E0,-2.057471466E0,-6.777905273E-1,8.094623798E0
1.096487979E1,7.964487762E0,-2.076032867E0,-6.581813049E-1,8.256886848E0
1.097494579E1,8.192463684E0,-2.120939484E0,-5.965095520E-1,8.483552862E0
1.098501079E1,8.415799255E0,-2.168390808E0,-4.813989258E-1,8.703984187E0
1.099507679E1,8.693172455E0,-2.169288940E0,-3.457809448E-1,8.966416581E0
1.100514279E1,8.936865692E0,-2.130220184E0,-2.197430420E-1,9.189869065E0
1.101520779E1,9.245972900E0,-2.000140686E0,-9.355545044E-2,9.460302863E0
1.102527379E1,9.489965515E0,-1.729503479E0,1.237925720E-1,9.647069626E0
1.103533979E1,9.792636108E0,-1.450633392E0,2.516267395E-1,9.902695351E0
1.104540479E1,1.026999344E1,-1.398392029E0,2.142045593E-1,1.036697396E1
1.105547079E1,1.094449081E1,-1.537003784E0,8.128097534E-2,1.105218831E1
1.106553679E1,1.158276352E1,-1.779200134E0,-2.993774414E-3,1.171861651E1
1.107560179E1,1.204769669E1,-2.060016174E0,9.639953613E-2,1.222292743E1
1.108566779E1,1.227791794E1,-2.131268005E0,2.962339783E-1,1.246504419E1
1.109573379E1,1.253298752E1,-2.278861084E0,4.781057739E-1,1.274745344E1
1.110579979E1,1.261786102E1,-2.301164703E0,6.249504089E-1,1.284119694E1
1.111586479E1,1.264734970E1,-2.376757507E0,7.168592834E-1,1.288868954E1
1.112593079E1,1.271231461E1,-2.521955566E0,6.749464417E-1,1.297762518E1
1.113599679E1,1.303444473E1,-2.774480438E0,4.728666687E-1,1.333484511E1
1.114606179E1,1.372840164E1,-3.438798981E0,1.312770081E-1,1.415314748E1
1.115612779E1,1.410756317E1,-4.242777100E0,-1.233435059E-1,1.473226764E1
1.116619379E1,1.409828247E1,-4.997507629E0,-1.586700439E-2,1.495783751E1
1.117625879E1,1.407268570E1,-5.557343445E0,4.378395081E-1,1.513658655E1
1.118632462E1,1.411459854E1,-5.678142242E0,1.165027313E0,1.525845601E1
1.119639063E1,1.437625443E1,-5.391338654E0,1.809287567E0,1.546016641E1
1.120645563E1,1.470512054E1,-4.776567078E0,1.995350647E0,1.558966284E1
1.121652162E1,1.478041397E1,-4.111799469E0,1.807341614E0,1.544778352E1
1.122658762E1,1.477801895E1,-3.622916107E0,1.630409546E0,1.530273180E1
1.123665263E1,1.459914093E1,-3.448977814E0,1.486259308E0,1.507445955E1
1.124671863E1,1.428075302E1,-3.641776886E0,1.377285919E0,1.480200535E1
1.125678463E1,1.364397720E1,-4.036655731E0,1.295555878E0,1.428744793E1
1.126684962E1,1.297022827E1,-4.528383179E0,1.237776031E0,1.379366395E1
1.127691563E1,1.245095810E1,-5.035827942E0,1.204096069E0,1.348464935E1
1.128698163E1,1.195099777E1,-5.489384766E0,1.167122955E0,1.320310073E1
1.129704662E1,1.161180313E1,-5.907764740E0,1.030157776E0,1.306892808E1
1.130711262E1,1.171029831E1,-6.378386078E0,8.563691711E-1,1.336219531E1
1.131717863E1,1.193468170E1,-6.686744843E0,7.514373779E-1,1.370087012E1
1.132724463E1,1.204305634E1,-6.820267181E0,7.652087402E-1,1.386134174E1
1.133730962E1,1.205009171E1,-6.893315277E0,8.318202209E-1,1.390735167E1
1.134737562E1,1.186941742E1,-6.852450256E0,8.949888611E-1,1.373463321E1
1.135744163E1,1.146151566E1,-6.729855194E0,1.053509216E0,1.333293568E1
1.136750663E1,1.100077377E1,-6.561305695E0,1.190923462E0,1.286413832E1
1.137757263E1,1.053090088E1,-6.304290161E0,1.321751404E0,1.234467393E1
1.138763862E1,1.008542725E1,-5.986351318E0,1.354383545E0,1.180621021E1
1.139770363E1,9.688303070E0,-5.577850800E0,1.304088135E0,1.125505583E1
1.140776963E1,9.431586914E0,-5.132077789E0,1.008303223E0,1.078469886E1
1.141783563E1,9.279503174E0,-4.771327972E0,6.677613831E-1,1.045565182E1
1.142790062E1,9.127419434E0,-4.437671814E0,4.358935547E-1,1.015838175E1
1.143796663E1,9.158105621E0,-4.161795502E0,3.019221497E-1,1.006392554E1
1.144803263E1,9.061706085E0,-3.952530670E0,3.269201660E-1,9.891607183E0
1.145809762E1,8.732390900E0,-3.936064911E0,3.611988831E-1,9.585286769E0
1.146816362E1,8.319100342E0,-4.199517059E0,3.444337463E-1,9.325342280E0
1.147822963E1,7.813302155E0,-4.490212555E0,4.366419983E-1,9.022214561E0
1.148829463E1,7.229216766E0,-4.697082367E0,6.514453125E-1,8.645723730E0
1.149836063E1,6.534960480E0,-4.783003693E0,9.391470337E-1,8.152596516E0
1.150842662E1,6.148164825E0,-4.986430664E0,1.199755096E0,8.006486981E0
1.151849163E1,5.830824738E0,-5.062173157E0,1.354383545E0,7.839545202E0
1.152855763E1,5.580245819E0,-5.022355957E0,1.396146698E0,7.636257484E0
1.153862363E1,5.449567566E0,-4.978048096E0,1.245559845E0,7.485330242E0
1.154868862E1,5.362598419E0,-4.916526031E0,9.927355957E-1,7.342698005E0
1.155875463E1,5.271587677E0,-4.915328522E0,7.243437195E-1,7.243946779E0
1.156882063E1,5.121749268E0,-4.898713074E0,5.486091614E-1,7.108493325E0
1.157888663E1,4.874912567E0,-4.923112335E0,5.278024292E-1,6.948408667E0
1.158895162E1,4.612508240E0,-4.979395294E0,5.806425476E-1,6.812250401E0
1.159901763E1,4.558620300E0,-5.094805298E0,5.049000549E-1,6.855142896E0
1.160908363E1,4.702022095E0,-5.280419312E0,3.794609070E-1,7.080665962E0
1.161914863E1,4.924758911E0,-5.425916748E0,1.395098877E-1,7.328934841E0
1.162921462E1,5.210963745E0,-5.461243286E0,-1.830693054E-1,7.550684456E0
1.163928063E1,5.529800720E0,-5.456004181E0,-3.426374817E-1,7.775865101E0
1.164934563E1,5.865851898E0,-5.384602661E0,-2.748284912E-1,7.967289063E0
1.165941163E1,6.327791290E0,-5.368286591E0,-1.496887207E-1,8.299509036E0
1.166947762E1,6.738537140E0,-5.408852234E0,-1.077758789E-2,8.640814859E0
1.167954263E1,7.119494934E0,-5.544619904E0,1.287322998E-1,9.024776451E0
1.168960863E1,7.721992035E0,-5.967340851E0,1.037342834E-1,9.759563444E0
1.169967463E1,8.419092407E0,-6.477330322E0,-1.275347900E-1,1.062323822E1
1.170973962E1,8.943002930E0,-6.810537415E0,-4.370910645E-1,1.124952310E1
1.171980563E1,9.058113556E0,-6.871760101E0,-7.512876892E-1,1.139451365E1
1.172987163E1,9.004674683E0,-6.818321228E0,-1.043180695E0,1.134292275E1
1.173993663E1,9.117539978E0,-6.903793488E0,-1.264121246E0,1.150608110E1
1.175000262E1,9.093589783E0,-6.899452515E0,-1.250200195E0,1.148297961E1
1.176006863E1,9.021589508E0,-6.590195618E0,-1.083746338E0,1.122471655E1
1.177013363E1,9.315727844E0,-6.292913818E0,-8.211923218E-1,1.127199656E1
1.178019963E1,9.963880005E0,-6.003565521E0,-6.948550415E-1,1.165351995E1
1.179026562E1,1.076142151E1,-5.712570648E0,-6.544390869E-1,1.220122727E1
1.180033063E1,1.133143616E1,-5.501958618E0,-6.550378418E-1,1.261356685E1
1.181039663E1,1.172496780E1,-5.478307800E0,-7.472460938E-1,1.296322117E1
1.182046263E1,1.181717606E1,-5.571563873E0,-7.464976501E-1,1.308607018E1
1.183052862E1,1.159728333E1,-5.739514618E0,-6.023474121E-1,1.295383461E1
1.184059363E1,1.126332779E1,-5.931565247E0,-3.700305176E-1,1.273510666E1
1.185065963E1,1.095496902E1,-6.063890076E0,-2.273771667E-1,1.252333061E1
1.186072563E1,1.068373306E1,-6.045628052E0,-2.939886475E-1,1.227917750E1
1.187079062E1,1.034603531E1,-5.804778900E0,-5.533992004E-1,1.187611702E1
1.188085662E1,9.965975647E0,-5.416636047E0,-8.199948120E-1,1.137246711E1
1.189092263E1,9.635762329E0,-4.960684204E0,-1.047072601E0,1.088818922E1
1.190098763E1,9.420210571E0,-4.458927612E0,-1.153950348E0,1.048589548E1
1.191105362E1,9.153764648E0,-3.979324951E0,-1.199455719E0,1.005311535E1
1.192111962E1,8.894653473E0,-3.605252838E0,-1.203048248E0,9.672643564E0
1.193118463E1,8.587941284E0,-3.243305511E0,-1.107247467E0,9.246500046E0
1.194125063E1,8.251141663E0,-3.003055115E0,-9.774673462E-1,8.834880937E0
1.195131662E1,7.954907684E0,-2.892584839E0,-8.623567200E-1,8.508305497E0
1.196138163E1,7.617209930E0,-2.762355652E0,-7.806266785E-1,8.140139672E0
1.197144763E1,7.386689301E0,-2.721490631E0,-7.764353943E-1,7.910280779E0
1.198151363E1,7.286846924E0,-2.747237091E0,-7.647596741E-1,7.824979686E0
1.199157862E1,7.129973145E0,-2.752476196E0,-7.929011536E-1,7.683835923E0
1.200164462E1,7.172784119E0,-2.763104095E0,-7.929011536E-1,7.727371383E0
1.201171063E1,7.335495758E0,-2.749482422E0,-7.873626709E-1,7.873315158E0
1.202177563E1,7.530689850E0,-2.862497406E0,-7.915539551E-1,8.095167613E0
1.203184162E1,7.683222656E0,-2.942880249E0,-7.384144592E-1,8.260611991E0
1.204190762E1,7.892487488E0,-2.952610016E0,-7.051835632E-1,8.456154475E0
1.205197263E1,8.170459442E0,-2.922223206E0,-6.444099426E-1,8.701210268E0
1.206203863E1,8.377329254E0,-2.838098145E0,-5.619314575E-1,8.862855831E0
1.207210462E1,8.607101440E0,-2.811453552E0,-5.135820007E-1,9.069191406E0
1.208217062E1,8.888665924E0,-2.747386780E0,-4.041595459E-1,9.312349916E0
1.209223563E1,9.103768616E0,-2.562970276E0,-1.618135071E-1,9.459048750E0
1.210230163E1,9.345665588E0,-2.366279297E0,4.191284180E-2,9.640669048E0
1.211236762E1,9.798773346E0,-2.185455322E0,1.532812500E-1,1.004070063E1
1.212243262E1,1.041309586E1,-2.032922516E0,1.453477478E-1,1.061067694E1
1.213249863E1,1.102696930E1,-2.064656525E0,-4.146377563E-2,1.121867094E1
1.214256463E1,1.159997772E1,-2.163750458E0,-2.097138977E-1,1.180191845E1
1.215262962E1,1.190354645E1,-2.108515320E0,-2.312690735E-1,1.209106035E1
1.216269562E1,1.214828751E1,-2.071542206E0,-2.266287231E-1,1.232572663E1
1.217276163E1,1.246667542E1,-2.086960144E0,-3.025209045E-1,1.264376991E1
1.218282663E1,1.274794052E1,-2.113754425E0,-4.087998962E-1,1.292845941E1
1.219289237E1,1.292771667E1,-2.166744232E0,-5.355862427E-1,1.311897449E1
1.220295837E1,1.307066940E1,-2.282453613E0,-6.243516541E-1,1.328314000E1
1.221302338E1,1.345821350E1,-2.728376312E0,-7.872129822E-1,1.375453570E1
1.222308938E1,1.396670609E1,-3.497626648E0,-8.831634521E-1,1.442505628E1
1.223315537E1,1.415711014E1,-4.294569397E0,-7.241940308E-1,1.481187195E1
1.224322038E1,1.426758041E1,-4.980892181E0,-3.728746033E-1,1.511661911E1
1.225328638E1,1.452429657E1,-5.360802155E0,8.532257080E-2,1.548226955E1
1.226335238E1,1.482023117E1,-5.313650208E0,6.047424316E-1,1.575562896E1
1.227341737E1,1.516271896E1,-4.896916809E0,9.445358276E-1,1.596182911E1
1.228348337E1,1.526839920E1,-4.162094879E0,1.090332642E0,1.586303480E1
1.229354938E1,1.508697647E1,-3.369493103E0,1.068777466E0,1.549556801E1
1.230361438E1,1.484103790E1,-2.946173401E0,9.211843872E-1,1.515865840E1
1.231368037E1,1.453297852E1,-2.947670288E0,7.210505676E-1,1.484641838E1
1.232374637E1,1.403436539E1,-3.334465942E0,5.658233643E-1,1.443614322E1
1.233381138E1,1.358365265E1,-3.985611877E0,3.790118408E-1,1.416136898E1
1.234387738E1,1.334415070E1,-4.696184235E0,3.161425781E-1,1.414992757E1
1.235394337E1,1.313997528E1,-5.301675110E0,2.833607483E-1,1.417205005E1
1.236400937E1,1.297816177E1,-5.845793610E0,3.079096985E-1,1.423730292E1
1.237407438E1,1.282667679E1,-6.232738953E0,3.210823059E-1,1.426442309E1
1.238414038E1,1.263836838E1,-6.506669312E0,3.026705933E-1,1.421818238E1
1.239420638E1,1.235096603E1,-6.652915192E0,3.161425781E-1,1.403237644E1
1.240427137E1,1.197449890E1,-6.746171265E0,3.532653809E-1,1.374860892E1
1.241433738E1,1.147858017E1,-6.734495544E0,4.564009094E-1,1.331613813E1
1.242440338E1,1.093131821E1,-6.705306244E0,5.992039490E-1,1.283798640E1
1.243446837E1,1.046683411E1,-6.567143555E0,6.957531738E-1,1.237602776E1
1.244453437E1,1.007614655E1,-6.363566895E0,7.328759766E-1,1.193988358E1
1.245460038E1,9.776170349E0,-6.154002686E0,6.753955078E-1,1.157157789E1
1.246466538E1,9.466614075E0,-5.917943573E0,6.331832886E-1,1.118211783E1
1.247473137E1,9.112899628E0,-5.639223175E0,5.737568665E-1,1.073196043E1
1.248479737E1,8.819060669E0,-5.375621338E0,4.460723877E-1,1.033789710E1
1.249486238E1,8.582103424E0,-5.115162964E0,2.969824219E-1,9.995278380E0
1.250492838E1,8.387208710E0,-4.951553192E0,1.154100037E-1,9.740455247E0
1.251499438E1,8.150999908E0,-4.833748169E0,-4.266128540E-2,9.476589094E0
1.252505937E1,7.944279785E0,-4.763843536E0,-1.451980591E-1,9.264279196E0
1.253512538E1,7.737260284E0,-4.759951630E0,-1.691482544E-1,9.085755189E0
1.254519138E1,7.572752380E0,-4.773872681E0,-1.669029236E-1,8.953451601E0
1.255525637E1,7.416028290E0,-4.848866730E0,-1.113684082E-1,8.861229434E0
1.256532237E1,7.221882019E0,-4.918022919E0,5.388793945E-3,8.737422867E0
1.257538838E1,7.066205750E0,-4.999453583E0,1.453477478E-1,8.657189255E0
1.258545338E1,6.918462982E0,-5.091961212E0,2.772235107E-1,8.594768868E0
1.259551937E1,6.714886322E0,-5.176385651E0,4.412823486E-1,8.489958588E0
1.260558537E1,6.562503204E0,-5.279072113E0,5.981561279E-1,8.443508834E0
1.261565038E1,6.411916351E0,-5.384902039E0,7.664062500E-1,8.408163878E0
1.262571638E1,6.184838562E0,-5.445825348E0,9.139993286E-1,8.291238540E0
1.263578238E1,6.038293304E0,-5.504952393E0,9.728269958E-1,8.228722819E0
1.264584737E1,6.007756805E0,-5.588329010E0,9.289682007E-1,8.257453898E0
1.265591338E1,5.934858398E0,-5.668711853E0,8.982820129E-1,8.256134014E0
1.266597938E1,5.906417542E0,-5.790708160E0,8.640032959E-1,8.316523966E0
1.267604538E1,5.890251160E0,-6.045628052E0,8.113128662E-1,8.479558115E0
1.268611037E1,5.945486298E0,-6.386020203E0,7.129673767E-1,8.754335145E0
1.269617638E1,6.066285095E0,-6.705306244E0,6.397695923E-1,9.064780847E0
1.270624238E1,6.176306305E0,-6.941814423E0,6.448590088E-1,9.314042634E0
1.271630737E1,6.261329498E0,-7.027136993E0,7.310797119E-1,9.440306084E0
1.272637337E1,6.283633118E0,-6.926995239E0,7.608677673E-1,9.383295155E0
1.273643938E1,6.437962189E0,-6.837481384E0,4.671784973E-1,9.403018907E0
1.274650438E1,6.861281891E0,-6.875053253E0,-3.472778320E-2,9.713122692E0
1.275657038E1,7.430997162E0,-7.055278473E0,-6.216572571E-1,1.026562862E1
1.276663637E1,7.979306946E0,-7.496261444E0,-1.149759064E0,1.100841591E1
1.277670138E1,8.208330688E0,-7.933053131E0,-1.459764404E0,1.150829861E1
1.278676738E1,7.998616791E0,-8.048612823E0,-1.434766388E0,1.143750819E1
1.279683338E1,7.696095886E0,-8.138725433E0,-1.304387512E0,1.127697523E1
1.280689837E1,7.335944824E0,-8.279133453E0,-1.168021088E0,1.112314751E1
1.281696438E1,6.858886871E0,-8.013885040E0,-7.427554321E-1,1.057442047E1
1.282703038E1,6.737339630E0,-7.474855957E0,-2.650987244E-1,1.006655324E1
1.283709537E1,7.131320343E0,-6.959477692E0,-4.790039063E-2,9.964554883E0
1.284716137E1,7.942184143E0,-6.373745728E0,-6.481521606E-2,1.018366950E1
1.285722738E1,8.945547638E0,-5.941295013E0,-2.601589966E-1,1.074195009E1
1.286729238E1,9.890532532E0,-5.708529053E0,-5.391787720E-1,1.143243856E1
1.287735838E1,1.056173676E1,-5.665867767E0,-7.306306458E-1,1.200775424E1
1.288742437E1,1.085273163E1,-5.775888977E0,-8.104147339E-1,1.232069192E1
1.289748938E1,1.092922256E1,-5.944139099E0,-7.948471069E-1,1.246645408E1
1.290755538E1,1.097652420E1,-6.113586731E0,-7.602690125E-1,1.258721714E1
1.291762138E1,1.099074463E1,-6.100114746E0,-7.391629028E-1,1.259183184E1
1.292768637E1,1.095706467E1,-5.903124390E0,-8.363108826E-1,1.247411558E1
1.293775238E1,1.082279388E1,-5.550457764E0,-9.595046997E-1,1.220086465E1
1.294781838E1,1.062774948E1,-5.052742767E0,-1.009500732E0,1.181094239E1
1.295788337E1,1.044707520E1,-4.455933838E0,-9.840536499E-1,1.140022316E1
1.296794937E1,1.030816406E1,-3.921994171E0,-9.364526367E-1,1.106875007E1
1.297801538E1,1.010488678E1,-3.437451782E0,-7.936495972E-1,1.070302253E1
1.298808038E1,9.815388794E0,-3.040477295E0,-5.697152710E-1,1.029130385E1
1.299814638E1,9.472302246E0,-2.795885925E0,-3.400927734E-1,9.882163277E0
1.300821237E1,9.014404449E0,-2.649190979E0,-7.783813477E-2,9.395943763E0
1.301827838E1,8.586444397E0,-2.550546112E0,1.772314453E-1,8.959002391E0
1.302834338E1,8.175249481E0,-2.454895020E0,2.881507874E-1,8.540740279E0
1.303840938E1,7.896229706E0,-2.400707703E0,2.709365845E-1,8.257557004E0
1.304847537E1,7.716004486E0,-2.321073303E0,1.622625732E-1,8.059183312E0
1.305854038E1,7.626340942E0,-2.238594818E0,-6.451583862E-2,7.948367456E0
1.306860638E1,7.664062500E0,-2.196681976E0,-3.492237854E-1,7.980302185E0
1.307867238E1,7.676636353E0,-2.194137268E0,-5.605842590E-1,8.003701566E0
1.308873737E1,7.727979584E0,-2.221081238E0,-7.123686218E-1,8.072319330E0
1.309880338E1,7.770790558E0,-2.304457855E0,-7.842192078E-1,8.143138932E0
1.310886938E1,7.965984650E0,-2.453547821E0,-7.926017761E-1,8.372874412E0
1.311893438E1,8.277786255E0,-2.635868683E0,-6.915618896E-1,8.714803890E0
1.312900037E1,8.548124084E0,-2.806214447E0,-4.674778748E-1,9.009095429E0
1.313906638E1,8.634195099E0,-2.884052582E0,-1.642085266E-1,9.104616891E0
1.314913138E1,8.650810547E0,-2.841690674E0,7.708969116E-2,9.105914112E0
1.315919738E1,8.715775452E0,-2.729573822E0,2.155517578E-1,9.135741762E0
1.316926337E1,8.830736389E0,-2.549198914E0,2.616558838E-1,9.195041277E0
1.317932838E1,9.075926514E0,-2.367327118E0,1.987866211E-1,9.381694724E0
1.318939442E1,9.489516449E0,-2.257904663E0,1.603166199E-1,9.755755087E0
1.319946042E1,9.981842651E0,-2.309696960E0,2.170486450E-2,1.024560168E1
1.320952542E1,1.054287598E1,-2.494712219E0,-1.956431580E-1,1.083577866E1
1.321959142E1,1.078103073E1,-2.632276154E0,-2.412982178E-1,1.110034802E1
1.322965742E1,1.091634933E1,-2.811752930E0,-9.984237671E-2,1.127309212E1
1.323972242E1,1.100032471E1,-2.918930054E0,1.278341675E-1,1.138172385E1
1.324978842E1,1.116797607E1,-3.018323364E0,3.752696228E-1,1.157474807E1
1.325985442E1,1.131556915E1,-3.152893524E0,5.264552307E-1,1.175840116E1
1.326991942E1,1.144924118E1,-3.200793915E0,5.972579956E-1,1.190323160E1
1.327998542E1,1.196581696E1,-3.374133453E0,4.593946838E-1,1.244092422E1
1.329005142E1,1.287727158E1,-3.805087280E0,1.092727661E-1,1.342813289E1
1.330011642E1,1.375040588E1,-4.179608459E0,-1.634600830E-1,1.437252615E1
1.331018242E1,1.437176376E1,-4.353696442E0,-2.520758057E-1,1.501884844E1
1.332024842E1,1.481933304E1,-4.479135590E0,-1.666035461E-1,1.548234621E1
1.333031342E1,1.500883896E1,-4.520150299E0,4.580474854E-2,1.567479198E1
1.334037942E1,1.500809052E1,-4.295317841E0,4.183799744E-1,1.561626005E1
1.335044542E1,1.496872238E1,-3.891158295E0,7.363188171E-1,1.548373108E1
1.336051142E1,1.494926285E1,-3.448079681E0,8.774752808E-1,1.536683689E1
1.337057642E1,1.498982849E1,-3.192111969E0,9.169931030E-1,1.535335186E1
1.338064242E1,1.508353363E1,-3.226240997E0,8.872050476E-1,1.545020228E1
1.339070842E1,1.510898071E1,-3.605701904E0,9.613009644E-1,1.556298442E1
1.340077342E1,1.490869720E1,-4.231550446E0,1.172960815E0,1.554191457E1
1.341083942E1,1.434781357E1,-4.871918793E0,1.342408447E0,1.521175228E1
1.342090542E1,1.375669281E1,-5.548960876E0,1.344953156E0,1.489451117E1
1.343097042E1,1.333022964E1,-6.185886383E0,1.262025604E0,1.474967530E1
1.344103642E1,1.289987457E1,-6.707551575E0,1.168170776E0,1.458638526E1
1.345110242E1,1.252400620E1,-7.240593109E0,1.125958557E0,1.451015859E1
1.346116742E1,1.210951813E1,-7.572453003E0,1.179696808E0,1.433088128E1
1.347123342E1,1.169517975E1,-7.676336975E0,1.326840820E0,1.405218436E1
1.348129942E1,1.136451736E1,-7.655380554E0,1.468146973E0,1.378087667E1
1.349136442E1,1.101469482E1,-7.482190704E0,1.530118103E0,1.340328099E1
1.350143042E1,1.060619431E1,-7.108717346E0,1.557211761E0,1.286274187E1
1.351149642E1,1.018197647E1,-6.668931885E0,1.566342773E0,1.227194879E1
1.352156142E1,9.792636108E0,-6.277645569E0,1.428030396E0,1.171937825E1
1.353162742E1,9.379046173E0,-5.858816528E0,1.237326965E0,1.112758807E1
1.354169342E1,8.965755615E0,-5.503305817E0,9.810598755E-1,1.056568157E1
1.355175842E1,8.641080780E0,-5.250032501E0,6.789880371E-1,1.013371319E1
1.356182442E1,8.346792755E0,-5.092260590E0,4.757107544E-1,9.789094337E0
1.357189042E1,7.999963989E0,-4.927902374E0,3.653901672E-1,9.403039701E0
1.358195542E1,7.764353943E0,-4.912185059E0,2.418969727E-1,9.190934030E0
1.359202142E1,7.588469696E0,-5.012626190E0,1.999841309E-1,9.096773456E0
1.360208742E1,7.330855408E0,-5.229375458E0,1.922003174E-1,9.006927870E0
1.361215242E1,6.970854034E0,-5.439089355E0,2.311193848E-1,8.844767671E0
1.362221842E1,6.621929626E0,-5.667963409E0,2.860551453E-1,8.721100202E0
1.363228442E1,6.259383545E0,-5.937103729E0,3.471281433E-1,8.634209923E0
1.364234942E1,5.873486023E0,-6.143973541E0,4.526586914E-1,8.511824060E0
1.365241542E1,5.549260254E0,-6.179599457E0,4.873864746E-1,8.319812762E0
1.366248142E1,5.357658691E0,-6.192023621E0,4.799020386E-1,8.202192947E0
1.367254642E1,5.162165222E0,-6.066734161E0,5.011578369E-1,7.981501885E0
1.368261242E1,5.106181641E0,-5.933810577E0,5.269042969E-1,7.846070803E0
1.369267842E1,5.148693237E0,-5.805976410E0,5.278024292E-1,7.777980427E0
1.370274342E1,5.265600128E0,-5.636229401E0,5.728587341E-1,7.734454971E0
1.371280942E1,5.446124725E0,-5.540727997E0,5.842350769E-1,7.791102097E0
1.372287542E1,5.595065002E0,-5.595364380E0,5.325924683E-1,7.930731975E0
1.373294042E1,5.773943024E0,-5.867797852E0,4.089495850E-1,8.242372803E0
1.374300642E1,5.873935089E0,-6.289920044E0,2.689906311E-1,8.610375343E0
1.375307242E1,5.962101746E0,-6.649771729E0,1.282832336E-1,8.932109373E0
1.376313742E1,6.029311981E0,-6.942712555E0,1.549278259E-1,9.196622381E0
1.377320342E1,6.054609375E0,-7.094646606E0,2.198927307E-1,9.329558294E0
1.378326942E1,6.035898285E0,-7.132667542E0,2.462379456E-1,9.347066250E0
1.379333542E1,6.008355560E0,-7.067403259E0,2.601589966E-1,9.279881900E0
1.380340042E1,5.976920929E0,-6.833589478E0,2.644999695E-1,9.082482545E0
1.381346642E1,6.152206421E0,-6.636000366E0,1.399589539E-1,9.050178629E0
1.382353242E1,6.783892822E0,-6.717131653E0,-2.197430420E-1,9.549311309E0
1.383359742E1,7.577392731E0,-6.953639832E0,-6.686595154E-1,1.030616772E1
1.384366342E1,8.129594421E0,-7.224576416E0,-1.085392914E0,1.092990794E1
1.385372942E1,8.190517731E0,-7.454647980E0,-1.411115570E0,1.116456915E1
1.386379442E1,8.079748077E0,-7.623945923E0,-1.590292969E0,1.122211710E1
1.387386042E1,7.965385895E0,-7.744744720E0,-1.579964447E0,1.122161891E1
1.388392642E1,7.915689240E0,-7.812703400E0,-1.515747986E0,1.122470323E1
1.389399142E1,7.977061615E0,-7.626640320E0,-1.372046814E0,1.112122597E1
1.390405742E1,8.333769836E0,-7.336693268E0,-1.059496765E0,1.115353402E1
1.391412342E1,8.964558105E0,-6.984775085E0,-7.441026306E-1,1.138876963E1
1.392418842E1,9.746382294E0,-6.707701263E0,-5.219645691E-1,1.184304315E1
1.393425442E1,1.040920395E1,-6.383625183E0,-3.390449524E-1,1.221544714E1
1.394432042E1,1.104448288E1,-6.152954865E0,-1.528321838E-1,1.264368670E1
1.395438542E1,1.148232239E1,-6.012846222E0,-4.805007935E-2,1.296149513E1
1.396445142E1,1.166254761E1,-6.031257935E0,8.891510010E-2,1.313007977E1
1.397451742E1,1.168215683E1,-6.038592682E0,1.989363098E-1,1.315207077E1
1.398458242E1,1.165117126E1,-6.048921204E0,2.880010986E-1,1.313096281E1
1.399464842E1,1.152109177E1,-5.942492523E0,2.417472839E-1,1.296561663E1
1.400471442E1,1.128772705E1,-5.664819946E0,3.323089600E-2,1.262949212E1
1.401477942E1,1.099179245E1,-5.228477325E0,-3.167413330E-1,1.217607496E1
1.402484542E1,1.069391190E1,-4.783602448E0,-6.294410706E-1,1.173195636E1
1.403491142E1,1.039782761E1,-4.275109863E0,-8.190966797E-1,1.127219156E1
1.404497642E1,1.006252487E1,-3.688030701E0,-9.048683167E-1,1.075522031E1
1.405504242E1,9.724228363E0,-3.112776947E0,-9.075627136E-1,1.025054475E1
1.406510842E1,9.420509949E0,-2.668800201E0,-9.114546204E-1,9.833577769E0
1.407517342E1,9.081015930E0,-2.324516144E0,-9.093589783E-1,9.417810753E0
1.408523942E1,8.646170197E0,-2.013013916E0,-8.735833740E-1,8.920293269E0
1.409530542E1,8.210426331E0,-1.804946594E0,-8.412506104E-1,8.448469407E0
1.410537042E1,7.747888184E0,-1.721869354E0,-8.428971863E-1,7.981546282E0
1.411543642E1,7.387138367E0,-1.717079315E0,-8.819659424E-1,7.635184251E0
1.412550242E1,7.183262329E0,-1.754800873E0,-9.601034546E-1,7.456566397E0
1.413556742E1,7.054080963E0,-1.858984222E0,-1.073417816E0,7.373473156E0
1.414563342E1,6.935377808E0,-2.016456757E0,-1.094224548E0,7.304990797E0
1.415569942E1,6.859485626E0,-2.188898163E0,-1.034947815E0,7.274265269E0
1.416576442E1,6.878645782E0,-2.422262878E0,-8.173004150E-1,7.338331229E0
1.417583042E1,6.926995239E0,-2.634521484E0,-4.770579529E-1,7.426409010E0
1.418589662E1,7.012617188E0,-2.896925812E0,-9.460327148E-2,7.588012174E0
1.419596163E1,7.098089447E0,-2.988086243E0,3.168910217E-1,7.707914965E0
1.420602763E1,7.228019257E0,-2.951562195E0,6.505471802E-1,7.834487437E0
1.421609363E1,7.421566772E0,-2.859054565E0,8.002359009E-1,7.993386258E0
1.422615862E1,7.677684174E0,-2.712509308E0,8.297245789E-1,8.184924184E0
1.423622463E1,8.003556519E0,-2.476150818E0,7.834707642E-1,8.414396369E0
1.424629063E1,8.463699646E0,-2.280058594E0,7.117698669E-1,8.794287648E0
1.425635562E1,9.116043091E0,-2.178419952E0,6.632707214E-1,9.396152573E0
1.426642162E1,9.863438873E0,-2.202220459E0,6.117778015E-1,1.012479498E1
1.427648763E1,1.062700104E1,-2.411185913E0,5.022056580E-1,1.090867449E1
1.428655263E1,1.123488693E1,-2.681523743E0,4.990621948E-1,1.156124202E1
1.429661862E1,1.162961609E1,-2.931503906E0,6.053411865E-1,1.200866868E1
1.430668462E1,1.210951813E1,-3.230132904E0,8.294252014E-1,1.256033973E1
1.431674963E1,1.253089188E1,-3.430566101E0,1.249002686E0,1.305189805E1
1.432681563E1,1.274225235E1,-3.463048553E0,1.711540833E0,1.331491916E1
1.433688163E1,1.303429504E1,-3.510649567E0,1.950593719E0,1.363900009E1
1.434694762E1,1.361478790E1,-3.789369965E0,1.748214569E0,1.424001505E1
1.435701263E1,1.421474030E1,-4.374203796E0,1.150956573E0,1.491701048E1
1.436707863E1,1.437101532E1,-5.033432922E0,4.125421143E-1,1.523258741E1
1.437714463E1,1.433269501E1,-5.519322510E0,1.496887207E-3,1.535868059E1
1.438720962E1,1.421578812E1,-5.787265320E0,2.409988403E-2,1.534866940E1
1.439727563E1,1.416339706E1,-5.730682983E0,1.847158813E-1,1.527994319E1
1.440734163E1,1.439631271E1,-5.256020050E0,4.005670166E-1,1.533101498E1
1.441740662E1,1.467907471E1,-4.448748779E0,4.800517273E-1,1.534591312E1
1.442747262E1,1.470003113E1,-3.640878754E0,4.083508301E-1,1.514970837E1
1.443753863E1,1.470272552E1,-3.035986633E0,3.620970154E-1,1.501727229E1
1.444760363E1,1.464359848E1,-2.780168610E0,2.507286072E-1,1.490728610E1
1.445766963E1,1.452279968E1,-2.963237915E0,1.375639343E-1,1.482266553E1
1.446773562E1,1.400427795E1,-3.498524780E0,1.916015625E-1,1.443593391E1
1.447780063E1,1.334729416E1,-4.193529510E0,3.055146790E-1,1.399390190E1
1.448786663E1,1.277368698E1,-4.842430115E0,4.221221924E-1,1.366727462E1
1.449793263E1,1.225965591E1,-5.491929474E0,4.718188477E-1,1.344184011E1
1.450799762E1,1.179951279E1,-6.042634277E0,4.971162415E-1,1.326608667E1
1.451806363E1,1.146361130E1,-6.529272308E0,5.499563599E-1,1.320409909E1
1.452812963E1,1.113848740E1,-6.883585510E0,7.399113464E-1,1.311476724E1
1.453819462E1,1.088386688E1,-7.040459290E0,9.415420532E-1,1.299665829E1
1.454826062E1,1.065888474E1,-6.987319794E0,1.195863190E0,1.280095897E1
1.455832663E1,1.041953247E1,-6.727609863E0,1.460213470E0,1.248837919E1
1.456839163E1,1.022718246E1,-6.388115845E0,1.670675812E0,1.217351399E1
1.457845763E1,1.006926086E1,-6.002517700E0,1.791474609E0,1.185873578E1
1.458852362E1,9.818681946E0,-5.619164886E0,1.786235504E0,1.145304180E1
1.459858863E1,9.521100769E0,-5.335205383E0,1.581161957E0,1.102795763E1
1.460865463E1,9.164392548E0,-5.082081757E0,1.255588989E0,1.055415319E1
1.461872063E1,8.839867401E0,-4.851710815E0,8.913963318E-1,1.012308950E1
1.462878562E1,8.505163422E0,-4.672234039E0,5.460644531E-1,9.719349882E0
1.463885163E1,8.220904541E0,-4.543950806E0,2.227368164E-1,9.395763518E0
1.464891763E1,8.040230255E0,-4.486320648E0,1.466949463E-2,9.207203197E0
1.465898262E1,7.839797058E0,-4.460873566E0,-1.263372803E-1,9.020962919E0
1.466904862E1,7.617808685E0,-4.502337341E0,-2.174977112E-1,8.851517156E0
1.467911463E1,7.404502258E0,-4.561763763E0,-3.176394653E-1,8.702714356E0
1.468917963E1,7.176376648E0,-4.645290070E0,-3.791615295E-1,8.557035999E0
1.469924563E1,6.892566833E0,-4.826712799E0,-3.583547974E-1,8.422176213E0
1.470931162E1,6.630761261E0,-5.015170898E0,-3.203338623E-1,8.319948787E0
1.471937663E1,6.410718842E0,-5.160518646E0,-2.350112915E-1,8.233073489E0
1.472944263E1,6.250252533E0,-5.266198883E0,-1.496887207E-1,8.174406040E0
1.473950863E1,6.098318481E0,-5.401367798E0,-3.966751099E-2,8.146522933E0
1.474957362E1,5.921536102E0,-5.411995697E0,9.804611206E-2,8.022711529E0
1.475963963E1,5.786516876E0,-5.424120483E0,1.935475159E-1,7.933619679E0
1.476970563E1,5.694158936E0,-5.436694336E0,2.474354553E-1,7.876694458E0
1.477977062E1,5.581742706E0,-5.434299316E0,2.676434326E-1,7.794811974E0
1.478983662E1,5.596561890E0,-5.462291107E0,1.880090332E-1,7.822625935E0
1.479990263E1,5.737718353E0,-5.585933990E0,8.801696777E-2,8.008234352E0
1.480996763E1,5.943839722E0,-5.815706177E0,-1.901046753E-2,8.315769981E0
1.482003363E1,6.113437042E0,-6.064189453E0,-9.684860229E-2,8.611497306E0
1.483009962E1,6.152206421E0,-6.243067474E0,-1.014889526E-1,8.765605247E0
1.484016463E1,6.052962799E0,-6.429729309E0,-4.041595459E-3,8.830616851E0
1.485023063E1,5.946234741E0,-6.548133087E0,1.029858398E-1,8.845697293E0
1.486029663E1,5.894592133E0,-6.504274292E0,2.152523804E-1,8.780554314E0
1.487036162E1,6.104006653E0,-6.405180359E0,1.574725342E-1,8.849295466E0
1.488042763E1,6.610403595E0,-6.387666779E0,-1.050814819E-1,9.192973658E0
1.489049363E1,7.400610352E0,-6.561006317E0,-5.263055420E-1,9.904182702E0
1.490055862E1,8.154143372E0,-6.938221893E0,-1.097517700E0,1.076259830E1
1.491062462E1,8.486602020E0,-7.332801361E0,-1.586550751E0,1.132737979E1
1.492069063E1,8.395740967E0,-7.588619385E0,-1.767075348E0,1.145417679E1
1.493075563E1,8.078400879E0,-7.787855072E0,-1.689536591E0,1.134750110E1
1.494082163E1,7.754773865E0,-7.906109161E0,-1.494941254E0,1.117487938E1
1.495088762E1,7.591014404E0,-7.797884216E0,-1.231788483E0,1.095206833E1
1.496095263E1,7.809260559E0,-7.524702301E0,-8.824150085E-1,1.088045732E1
1.497101863E1,8.390501862E0,-7.084467773E0,-5.095404053E-1,1.099317227E1
1.498108463E1,9.205856323E0,-6.690936127E0,-2.004331970E-1,1.138229284E1
1.499114962E1,9.978250122E0,-6.430627441E0,-2.844085693E-2,1.187094157E1
1.500121563E1,1.067999084E1,-6.202801208E0,1.011895752E-1,1.235099942E1
1.501128163E1,1.129745682E1,-5.988446960E0,2.489323425E-1,1.278890124E1
1.502134763E1,1.184412003E1,-5.804479523E0,3.046165466E-1,1.319348146E1
1.503141262E1,1.223346039E1,-5.648354187E0,2.451901245E-1,1.347670495E1
1.504147863E1,1.239213043E1,-5.486540680E0,1.450483704E-1,1.355315699E1
1.505154363E1,1.227791794E1,-5.272036743E0,-1.290316772E-1,1.336257047E1
1.506160963E1,1.187136337E1,-5.038522339E0,-6.044430542E-1,1.291051227E1
1.507167562E1,1.141615997E1,-4.793631592E0,-1.144070892E0,1.243448875E1
1.508174163E1,1.095002930E1,-4.371060333E0,-1.538949738E0,1.189023449E1
1.509180663E1,1.031385223E1,-3.836222534E0,-1.774410095E0,1.114633045E1
1.510187263E1,9.823471985E0,-3.442391510E0,-1.923949127E0,1.058547313E1
1.511193862E1,9.377998352E0,-3.019820251E0,-1.876198425E0,1.002927156E1
1.512200363E1,8.897497559E0,-2.706671448E0,-1.620530090E0,9.440214558E0
1.513206963E1,8.389603729E0,-2.476899261E0,-1.292262726E0,8.842534910E0
1.514213563E1,7.936495972E0,-2.346670074E0,-1.009800110E0,8.337537107E0
1.515220062E1,7.507488098E0,-2.328108673E0,-8.234376526E-1,7.903196638E0
1.516226663E1,7.127877502E0,-2.367177429E0,-6.824308777E-1,7.541609813E0
1.517233263E1,6.826105042E0,-2.397414551E0,-5.246589661E-1,7.253866114E0
1.518239763E1,6.724915466E0,-2.481389923E0,-3.606001282E-1,7.177173290E0
1.519246387E1,6.762187958E0,-2.610720978E0,-2.393522644E-1,7.252609152E0
1.520252987E1,6.872358856E0,-2.676434326E0,-1.703457642E-1,7.377102048E0
1.521259488E1,6.981931000E0,-2.714006195E0,-1.648072815E-1,7.492686538E0
1.522266088E1,7.113058319E0,-2.790946198E0,-2.203417969E-1,7.644182745E0
1.523272687E1,7.238946533E0,-2.897374878E0,-2.748284912E-1,7.802093232E0
1.524279188E1,7.415429535E0,-2.964585114E0,-2.896476746E-1,7.991323786E0
1.525285788E1,7.636519775E0,-3.034489746E0,-2.522254944E-1,8.221203075E0
1.526292388E1,7.824828186E0,-2.999612274E0,-9.535171509E-2,8.380614648E0
1.527298887E1,8.024063873E0,-2.886447601E0,8.771759033E-2,8.527888084E0
1.528305488E1,8.216413879E0,-2.755769348E0,2.656974792E-1,8.670312387E0
1.529312088E1,8.451125793E0,-2.553988953E0,4.736151123E-1,8.841306353E0
1.530318588E1,8.693771210E0,-2.314636688E0,6.917115784E-1,9.023173818E0
1.531325187E1,9.128317566E0,-2.174078979E0,8.602610779E-1,9.422995814E0
1.532331787E1,9.775721283E0,-2.198627930E0,8.509803772E-1,1.005598623E1
1.533338288E1,1.053748718E1,-2.362537079E0,7.897576904E-1,1.082792384E1
1.534344888E1,1.131212631E1,-2.555485840E0,7.372169495E-1,1.162059372E1
1.535351487E1,1.189995392E1,-2.644700317E0,7.264393616E-1,1.221192275E1
1.536357988E1,1.238314911E1,-2.672692108E0,7.999365234E-1,1.269352447E1
1.537364588E1,1.269629791E1,-2.509082336E0,8.912466431E-1,1.297250151E1
1.538371188E1,1.297397049E1,-2.356848907E0,8.113128662E-1,1.321124050E1
1.539377687E1,1.354518265E1,-2.571951599E0,4.640350342E-1,1.379500767E1
1.540384288E1,1.429467407E1,-3.029250641E0,-1.960922241E-2,1.461213368E1
1.541390888E1,1.509161682E1,-3.810775452E0,-4.742138672E-1,1.557253308E1
1.542397388E1,1.544024185E1,-4.655019836E0,-5.224136353E-1,1.613515399E1
1.543403987E1,1.540057434E1,-5.387297058E0,-8.831634521E-2,1.631589591E1
1.544410587E1,1.530402512E1,-5.850883026E0,6.707551575E-1,1.639804651E1
1.545417088E1,1.509281433E1,-5.800587616E0,1.522483978E0,1.624062248E1
1.546423688E1,1.489612335E1,-5.372178497E0,2.081122284E0,1.597140766E1
1.547430287E1,1.455932373E1,-4.746629333E0,2.307751007E0,1.548644931E1
1.548436788E1,1.400053574E1,-4.103865967E0,2.454445953E0,1.479462814E1
1.549443388E1,1.350835922E1,-3.729195099E0,2.457589417E0,1.422752300E1
1.550449988E1,1.321227493E1,-3.800746307E0,2.248623962E0,1.393076420E1
1.551456487E1,1.279344589E1,-4.165238342E0,1.913171539E0,1.358976429E1
1.552463088E1,1.237446716E1,-4.572840729E0,1.532363434E0,1.328105597E1
1.553469688E1,1.206880280E1,-4.947960663E0,1.257085876E0,1.310414364E1
1.554476188E1,1.176478500E1,-5.378016357E0,9.942324829E-1,1.297388625E1
1.555482787E1,1.152453461E1,-5.805826721E0,7.562274170E-1,1.292649998E1
1.556489387E1,1.141496246E1,-6.118077393E0,5.263055420E-1,1.296183770E1
1.557495888E1,1.152887558E1,-6.333479462E0,3.329077148E-1,1.315822031E1
1.558502488E1,1.157647659E1,-6.473887482E0,2.091151428E-1,1.326535935E1
1.559509087E1,1.135403915E1,-6.365363159E0,2.547702026E-1,1.301909986E1
1.560515588E1,1.101978424E1,-6.111042023E0,3.043171692E-1,1.260448683E1
1.561522188E1,1.065065186E1,-5.880820770E0,3.522175598E-1,1.217146232E1
1.562528788E1,1.017449203E1,-5.606890411E0,4.242178345E-1,1.162486426E1
1.563535287E1,9.665700073E0,-5.343887329E0,4.797523499E-1,1.105500122E1
1.564541888E1,9.233099670E0,-5.128036194E0,5.034031677E-1,1.057356607E1
1.565548488E1,8.798553314E0,-4.939129028E0,5.532495117E-1,1.010522741E1
1.566554988E1,8.452472992E0,-4.853507080E0,4.828958130E-1,9.758791883E0
1.567561587E1,8.145910492E0,-4.765939178E0,4.397854614E-1,9.447933385E0
1.568568187E1,7.922574921E0,-4.705165558E0,3.622467041E-1,9.221550790E0
1.569574688E1,7.687713318E0,-4.671186218E0,2.664459229E-1,8.999550554E0
1.570581288E1,7.470964050E0,-4.710853729E0,1.484912109E-1,8.833430610E0
1.571587887E1,7.286248169E0,-4.765939178E0,7.334747314E-2,8.706834585E0
1.572594388E1,7.093598785E0,-4.862488403E0,7.439529419E-2,8.600492536E0
1.573600988E1,6.835236053E0,-4.943170624E0,1.359173584E-1,8.436460232E0
1.574607588E1,6.636898499E0,-5.017865295E0,1.603166199E-1,8.321844460E0
1.575614087E1,6.499633942E0,-5.047204285E0,1.466949463E-1,8.230494024E0
1.576620688E1,6.404431915E0,-5.078489227E0,1.507365417E-1,8.174993731E0
1.577627288E1,6.324049072E0,-5.164260864E0,1.423539734E-1,8.165993607E0
1.578633788E1,6.242319031E0,-5.240751801E0,1.823208618E-1,8.152623333E0
1.579640387E1,6.143674164E0,-5.271288300E0,2.305206299E-1,8.098416656E0
1.580646987E1,6.079308014E0,-5.314248962E0,2.842588806E-1,8.079605874E0
1.581653488E1,5.992638245E0,-5.345234528E0,3.255729675E-1,8.036743311E0
1.582660088E1,5.961802368E0,-5.321434021E0,3.510200500E-1,7.998997599E0
1.583666687E1,5.968238983E0,-5.284311218E0,3.995191956E-1,7.981443303E0
1.584673188E1,6.076014862E0,-5.298831024E0,3.847000122E-1,8.071156108E0
1.585679788E1,6.261479187E0,-5.426365814E0,3.574566650E-1,8.293331226E0
1.586686388E1,6.475683746E0,-5.639073486E0,2.827619934E-1,8.591483231E0
1.587692887E1,6.662495270E0,-5.941744080E0,1.790277100E-1,8.928897852E0
1.588699488E1,6.705306244E0,-6.197711792E0,1.544787598E-1,9.132175369E0
1.589706088E1,6.766977997E0,-6.377487946E0,1.607656860E-1,9.300010178E0
1.590712588E1,6.802903290E0,-6.552623749E0,2.558180237E-1,9.448905441E0
1.591719187E1,6.754853210E0,-6.536906433E0,3.956272888E-1,9.408278725E0
1.592725787E1,6.911128235E0,-6.381230164E0,4.857398987E-1,9.419115411E0
1.593732288E1,7.203769684E0,-6.267466736E0,3.882925415E-1,9.556474666E0
1.594738888E1,7.675588531E0,-6.296805725E0,1.261875916E-1,9.928763516E0
1.595745487E1,8.346792755E0,-6.513854370E0,-2.215393066E-1,1.059001075E1
1.596751988E1,8.750802612E0,-6.806046753E0,-5.860313416E-1,1.110145268E1
1.597758588E1,8.930129700E0,-7.106472015E0,-9.901908875E-1,1.145555057E1
1.598765188E1,8.859925690E0,-7.247179413E0,-1.172062683E0,1.150624281E1
1.599771687E1,8.560548248E0,-7.280559998E0,-1.235381012E0,1.130556086E1
1.600778288E1,8.403075714E0,-7.270830231E0,-1.235381012E0,1.118046600E1
1.601784888E1,8.454868011E0,-7.060816956E0,-9.424401855E-1,1.105568282E1
1.602791388E1,8.844058685E0,-6.650669861E0,-4.571493530E-1,1.107509680E1
1.603797987E1,9.366771698E0,-6.278094635E0,-8.038284302E-2,1.127640659E1
1.604804587E1,9.853858795E0,-6.003266144E0,2.781216431E-1,1.154188413E1
1.605811088E1,1.035411850E1,-5.846991119E0,4.719685364E-1,1.190032896E1
1.606817688E1,1.071876022E1,-5.713169403E0,5.599855042E-1,1.215918209E1
1.607824287E1,1.090691895E1,-5.573659515E0,6.048921204E-1,1.226346019E1
1.608830788E1,1.101349731E1,-5.471571808E0,6.087840271E-1,1.231283230E1
1.609837388E1,1.101304825E1,-5.391488342E0,4.878355408E-1,1.227164870E1
1.610843988E1,1.094014984E1,-5.300178223E0,2.297721863E-1,1.215860037E1
1.611850487E1,1.078043198E1,-5.180726624E0,-1.637594604E-1,1.196179163E1
1.612857088E1,1.053838531E1,-4.995262299E0,-6.441105652E-1,1.168011511E1
1.613863688E1,1.022314087E1,-4.757257233E0,-1.093625793E0,1.132872998E1
1.614870188E1,9.900262299E0,-4.424948273E0,-1.384770355E0,1.093219785E1
1.615876787E1,9.520801392E0,-4.044888611E0,-1.506766663E0,1.045357015E1
1.616883387E1,9.143585815E0,-3.685186615E0,-1.531016235E0,9.976460929E0
1.617889888E1,8.877738647E0,-3.350931702E0,-1.474134521E0,9.602919314E0
1.618896513E1,8.617429962E0,-3.020868073E0,-1.290017395E0,9.222249614E0
1.619903112E1,8.369096375E0,-2.711611176E0,-9.981243896E-1,8.853861394E0
1.620909613E1,8.127498779E0,-2.469115448E0,-6.779402161E-1,8.521289248E0
1.621916213E1,7.847730560E0,-2.235151978E0,-4.092489624E-1,8.170083477E0
1.622922813E1,7.546407166E0,-2.060315552E0,-2.348616028E-1,7.826130669E0
1.623929312E1,7.351961517E0,-2.003733215E0,-2.086660767E-1,7.622980158E0
1.624935912E1,7.249574432E0,-1.977238312E0,-2.706372070E-1,7.519244995E0
1.625942513E1,7.182064819E0,-1.975591736E0,-3.884422302E-1,7.458947992E0
1.626949013E1,7.179969177E0,-1.982627106E0,-4.429289246E-1,7.461833130E0
1.627955612E1,7.157515869E0,-2.006277924E0,-5.005590820E-1,7.450217709E0
1.628962212E1,7.142097931E0,-2.111060028E0,-5.545967102E-1,7.468180154E0
1.629968713E1,7.163653107E0,-2.245630188E0,-5.318440247E-1,7.526196838E0
1.630975313E1,7.213798828E0,-2.390678558E0,-4.836442566E-1,7.614995028E0
1.631981912E1,7.305258636E0,-2.545307007E0,-3.826043701E-1,7.745435921E0
1.632988413E1,7.433841248E0,-2.636018372E0,-2.165995789E-1,7.890342447E0
1.633995013E1,7.624245300E0,-2.678979034E0,-4.176315308E-2,8.081323482E0
1.635001613E1,7.826624451E0,-2.665656738E0,1.204994202E-1,8.268996085E0
1.636008112E1,8.034691772E0,-2.536026306E0,3.360511780E-1,8.432119051E0
1.637014712E1,8.285270691E0,-2.337089996E0,5.031037903E-1,8.623271624E0
1.638021313E1,8.729097748E0,-2.192341003E0,4.839436340E-1,9.013196326E0
1.639027813E1,9.446406097E0,-2.314187622E0,2.896476746E-1,9.730053868E0
1.640034412E1,1.014545242E1,-2.499502258E0,1.713935852E-1,1.045021972E1
1.641041012E1,1.077204941E1,-2.727777557E0,1.432521057E-1,1.111298070E1
1.642047513E1,1.138352783E1,-2.988235931E0,2.586621094E-1,1.177205020E1
1.643054113E1,1.188678131E1,-3.198099518E0,5.403762817E-1,1.232133990E1
1.644060712E1,1.226938568E1,-3.182232513E0,8.234376526E-1,1.270206591E1
1.645067213E1,1.268372406E1,-3.106939087E0,9.855505371E-1,1.309584806E1
1.646073813E1,1.308354263E1,-3.101849670E0,9.675878906E-1,1.348097866E1
1.647080413E1,1.362960709E1,-3.349285126E0,5.954617310E-1,1.404772134E1
1.648086912E1,1.427940582E1,-4.030967560E0,5.179229736E-2,1.483754739E1
1.649093512E1,1.432281555E1,-4.850213928E0,-2.891986084E-1,1.512452499E1
1.650100113E1,1.392299698E1,-5.605692902E0,-2.751278687E-1,1.501163992E1
1.651106613E1,1.381432297E1,-6.340215454E0,-2.993774414E-2,1.519982721E1
1.652113212E1,1.371957001E1,-6.638395386E0,4.993615723E-1,1.524940184E1
1.653119812E1,1.387838974E1,-6.437812500E0,9.644444275E-1,1.532922975E1
1.654126313E1,1.407253601E1,-5.767207031E0,1.189725952E0,1.525491378E1
1.655132913E1,1.409783340E1,-5.052443390E0,1.178499298E0,1.502214870E1
1.656139512E1,1.402029465E1,-4.564158783E0,1.101259918E0,1.478556664E1
1.657146013E1,1.384530853E1,-4.447700958E0,9.786648560E-1,1.457506079E1
1.658152613E1,1.350746109E1,-4.713697815E0,9.000782776E-1,1.433459428E1
1.659159213E1,1.294193710E1,-5.191354523E0,9.012757874E-1,1.397341031E1
1.660165712E1,1.240739868E1,-5.728287964E0,9.545649719E-1,1.369919776E1
1.661172312E1,1.198377960E1,-6.199807434E0,1.100062408E0,1.353730856E1
1.662178913E1,1.156824371E1,-6.550827484E0,1.299148407E0,1.335759671E1
1.663185413E1,1.123024658E1,-6.850803680E0,1.362317047E0,1.322527342E1
1.664192012E1,1.103714813E1,-7.150630188E0,1.250050507E0,1.321032843E1
1.665198612E1,1.078073135E1,-7.328460388E0,1.066981201E0,1.307933290E1
1.666205113E1,1.047566574E1,-7.368277588E0,9.060658264E-1,1.283947205E1
1.667211713E1,1.018122803E1,-7.259603577E0,7.764353943E-1,1.252845163E1
1.668218312E1,9.890831909E0,-7.005581818E0,6.875202942E-1,1.213999245E1
1.669224813E1,9.535321198E0,-6.628815308E0,7.128176880E-1,1.163493239E1
1.670231413E1,9.168284454E0,-6.147865448E0,7.765850830E-1,1.106601888E1
1.671238013E1,8.785231018E0,-5.657185822E0,8.455915833E-1,1.048327528E1
1.672244512E1,8.431067505E0,-5.266498260E0,8.529263306E-1,9.977293547E0
1.673251112E1,8.058641968E0,-4.929399261E0,7.872129822E-1,9.479472123E0
1.674257713E1,7.791148224E0,-4.603526917E0,6.815327454E-1,9.075182511E0
1.675264213E1,7.609575806E0,-4.363276520E0,5.595364380E-1,8.789590830E0
